"// DN: 108, SN: 35"
Timestamp,P1,P2,P3,P4,P5,P6,P7,P8,P9,P10,P11,P12,P13,P14,P15,P16,P17,P18,P19,P20,P21,P22,P23,P24,P25,P26,P27,P28,P29,P30,P31,P32,P33,P34,P35,Mag_x,Mag_y,Mag_z,Gyro_x,Gyro_y,Gyro_z,Acc_x,Acc_y,Acc_z
1719126038.351,309,310,302,311,310,311,310,310,310,313,311,312,311,311,310,312,311,311,311,302,331,310,310,310,311,311,312,311,311,311,310,310,310,315,310,-29.0,4.0,49.0,-0.1831054538488388,0.0,-0.3662109076976776,-0.0205078125,-0.00048828125,0.987548828125
1719126038.362,311,310,310,311,310,311,311,310,311,311,312,313,311,311,311,308,311,310,312,312,311,312,311,311,311,312,311,312,312,313,310,310,309,323,310,-29.0,4.0,49.0,-0.1831054538488388,0.0,-0.3662109076976776,-0.0205078125,-0.00048828125,0.987548828125
1719126038.371,310,310,310,311,311,311,311,311,311,311,311,310,310,311,311,312,311,310,311,312,311,310,312,310,311,313,313,313,312,312,310,310,310,309,310,-29.0,4.0,49.0,-0.1831054538488388,0.0,-0.3662109076976776,-0.0198974609375,-0.0008544921875,0.9879150390625
1719126038.381,310,310,311,311,310,311,311,312,311,311,311,313,311,311,311,311,311,311,311,311,311,311,311,312,310,313,313,311,311,312,310,310,308,310,310,-28.0,4.0,39.0,-0.1831054538488388,-0.0610351525247097,-0.3662109076976776,-0.01904296875,-0.000732421875,0.9873046875
1719126038.391,310,300,300,310,310,310,312,311,311,311,310,311,311,311,311,312,311,311,313,311,311,311,311,312,311,312,312,312,312,312,309,310,309,310,310,-28.0,4.0,39.0,-0.1220703050494194,0.0,-0.3662109076976776,-0.01904296875,-0.000732421875,0.9873046875
1719126038.401,310,310,310,310,311,311,311,312,311,311,311,310,310,310,311,306,313,310,311,311,311,313,311,312,311,311,312,312,313,311,299,310,310,310,310,-28.0,4.0,39.0,-0.1220703050494194,0.0,-0.3662109076976776,-0.0198974609375,-0.0006103515625,0.9874267578125
1719126038.412,310,310,311,310,310,311,311,310,311,313,311,311,310,311,311,311,311,311,311,311,311,311,312,311,313,313,311,311,311,311,311,310,310,310,310,-28.0,4.0,39.0,-0.1220703050494194,-0.0610351525247097,-0.3662109076976776,-0.0211181640625,0.0001220703125,0.9886474609375
1719126038.421,311,310,310,311,310,311,311,311,311,311,311,310,310,311,311,311,311,311,311,311,311,311,311,311,311,312,311,311,312,313,310,311,311,310,310,-28.0,4.0,39.0,-0.1220703050494194,-0.0610351525247097,-0.30517578125,-0.0211181640625,0.0001220703125,0.9886474609375
1719126038.431,310,310,311,311,310,311,311,311,311,311,311,311,311,311,311,312,311,311,312,311,310,311,311,311,311,311,313,312,311,311,310,310,310,309,310,-28.0,4.0,39.0,-0.1220703050494194,-0.0610351525247097,-0.30517578125,-0.0203857421875,-0.000244140625,0.989013671875
1719126038.441,310,311,310,310,311,312,311,311,310,311,311,312,310,312,311,311,311,310,312,311,311,310,311,312,311,312,311,311,312,312,310,310,311,310,310,-28.0,4.0,39.0,-0.1831054538488388,-0.0610351525247097,-0.30517578125,-0.020751953125,-0.000244140625,0.9891357421875
1719126038.451,310,310,310,310,311,311,311,310,311,311,310,309,311,311,311,312,312,313,311,311,311,311,312,311,310,312,312,312,311,312,310,310,310,310,310,-28.0,4.0,39.0,-0.1831054538488388,0.0,-0.4272460639476776,-0.02099609375,-0.000244140625,0.9892578125
1719126038.461,309,311,311,310,311,311,311,310,312,311,311,311,311,311,308,313,311,311,313,312,311,311,311,311,311,312,311,313,311,313,308,311,310,310,310,-28.0,4.0,39.0,-0.1831054538488388,0.0,-0.4272460639476776,-0.0205078125,-0.0006103515625,0.988525390625
1719126038.471,310,310,310,311,311,311,310,312,311,311,311,311,310,311,311,310,304,311,311,311,311,310,310,311,312,312,311,312,311,313,310,310,311,310,309,-28.0,4.0,39.0,-0.1220703050494194,0.0,-0.4272460639476776,-0.0203857421875,-0.000732421875,0.9871826171875
1719126038.481,310,310,311,310,310,311,310,310,311,311,311,310,311,310,311,311,311,311,311,311,311,311,311,313,312,311,311,311,311,312,308,310,310,310,310,-27.0,4.0,38.0,-0.1220703050494194,0.0,-0.3662109076976776,-0.0205078125,-0.000244140625,0.987060546875
1719126038.491,310,310,310,311,311,313,311,310,310,311,312,310,311,311,311,312,311,300,311,313,301,331,313,300,310,312,313,311,311,311,310,310,310,308,310,-27.0,4.0,38.0,-0.0610351525247097,-0.0610351525247097,-0.3662109076976776,-0.0198974609375,-0.0001220703125,0.9884033203125
1719126038.501,310,310,311,311,304,311,311,311,312,312,311,311,311,311,310,311,311,311,311,313,310,311,311,311,311,313,312,313,311,312,310,310,309,310,310,-27.0,4.0,38.0,-0.1220703050494194,0.0,-0.3662109076976776,-0.0191650390625,-0.0008544921875,0.988037109375
1719126038.511,310,311,310,310,311,311,310,311,301,311,311,302,300,311,311,311,311,311,311,311,311,311,311,311,311,311,299,313,313,311,300,299,300,310,310,-27.0,4.0,38.0,-0.1831054538488388,0.0,-0.4272460639476776,-0.0191650390625,-0.0008544921875,0.988037109375
1719126038.521,310,310,311,310,311,311,312,311,311,311,311,311,312,312,310,311,311,312,311,311,311,311,311,311,311,312,311,313,313,314,311,310,310,310,310,-27.0,4.0,38.0,-0.1831054538488388,0.0,-0.4272460639476776,-0.019775390625,-0.0013427734375,0.987548828125
1719126038.531,310,310,311,311,311,311,310,311,311,311,311,310,311,311,311,311,311,310,313,311,311,311,311,312,311,312,306,313,312,311,310,310,315,310,310,-27.0,4.0,38.0,-0.2441406100988388,0.0,-0.4272460639476776,-0.020263671875,-0.0015869140625,0.98828125
1719126038.541,309,310,311,310,310,311,311,312,312,311,311,310,310,311,311,311,310,312,311,312,312,311,310,312,311,300,311,313,313,312,311,310,310,309,310,-27.0,4.0,38.0,-0.1831054538488388,0.0,-0.3662109076976776,-0.0201416015625,-0.0009765625,0.9888916015625
1719126038.551,310,310,310,310,310,311,311,311,311,311,310,311,311,311,300,313,312,310,311,311,311,311,310,312,311,312,313,311,313,311,310,310,310,310,310,-27.0,4.0,38.0,-0.1220703050494194,0.0,-0.3662109076976776,-0.019775390625,-0.0003662109375,0.98876953125
1719126038.561,310,310,311,311,310,313,312,311,311,310,311,311,311,311,311,311,311,312,311,312,311,310,300,311,312,313,312,311,312,312,310,310,304,310,310,-27.0,4.0,38.0,-0.1220703050494194,0.0,-0.3662109076976776,-0.020263671875,0.0,0.9874267578125
1719126038.572,310,310,310,311,311,311,311,311,311,312,310,310,312,311,311,311,311,311,310,310,311,310,311,311,313,312,311,313,313,311,310,310,309,310,310,-27.0,4.0,38.0,-0.1220703050494194,0.0,-0.3662109076976776,-0.020263671875,0.0,0.9874267578125
1719126038.581,310,302,310,310,310,312,311,311,310,311,311,311,311,312,311,312,311,311,313,311,311,311,311,311,311,311,312,312,311,311,310,302,310,308,310,-26.0,1.0,31.0,-0.1831054538488388,-0.0610351525247097,-0.3662109076976776,-0.0198974609375,-0.0009765625,0.988037109375
1719126038.591,310,310,311,311,311,311,310,311,312,311,311,311,311,302,301,306,300,313,311,313,310,298,312,299,304,299,304,311,311,312,310,310,310,312,310,-26.0,1.0,31.0,-0.1220703050494194,-0.0610351525247097,-0.3662109076976776,-0.019775390625,-0.0009765625,0.98779296875
1719126038.603,310,310,310,310,311,311,311,310,311,311,312,313,310,312,311,312,311,311,310,312,312,313,311,311,312,312,312,311,311,313,310,310,311,310,310,-26.0,1.0,31.0,-0.1220703050494194,-0.0610351525247097,-0.3662109076976776,-0.019775390625,-0.0009765625,0.98779296875
1719126038.611,311,301,308,310,311,311,311,311,310,311,312,312,311,310,310,311,312,312,310,311,313,311,311,311,311,311,313,312,313,313,310,310,302,310,310,-26.0,1.0,31.0,-0.1220703050494194,-0.0610351525247097,-0.3662109076976776,-0.020263671875,-0.0001220703125,0.9869384765625
1719126038.621,310,310,310,311,311,311,311,311,311,311,312,312,310,311,304,312,312,311,312,312,310,311,311,311,311,311,313,312,312,311,309,309,311,310,310,-26.0,1.0,31.0,-0.1220703050494194,0.0,-0.3662109076976776,-0.0205078125,-0.0006103515625,0.9881591796875
1719126038.631,310,310,311,311,309,311,311,311,311,311,311,311,311,311,311,311,307,311,311,311,312,312,312,311,311,311,313,313,313,313,311,310,310,310,309,-26.0,1.0,31.0,-0.1831054538488388,0.0,-0.3662109076976776,-0.0205078125,-0.0006103515625,0.9881591796875
1719126038.641,308,311,310,310,310,313,311,311,311,312,311,311,311,312,310,312,311,311,311,312,313,311,311,312,312,312,312,312,312,313,309,300,310,310,310,-26.0,1.0,31.0,-0.1831054538488388,0.0,-0.3662109076976776,-0.0203857421875,-0.00048828125,0.9886474609375
1719126038.651,309,311,310,311,311,311,312,310,311,313,311,311,311,310,311,311,312,311,311,311,311,311,312,311,312,313,311,312,312,312,308,310,310,310,310,-26.0,1.0,31.0,-0.1831054538488388,0.0,-0.3662109076976776,-0.019775390625,-0.0003662109375,0.9886474609375
1719126038.671,310,310,310,310,310,312,312,311,311,311,313,312,311,311,311,312,312,311,311,312,311,312,310,311,311,311,312,313,311,312,310,310,311,308,310,-26.0,1.0,31.0,-0.1220703050494194,0.0,-0.3662109076976776,-0.0191650390625,-0.000244140625,0.9873046875
1719126038.681,310,311,311,311,311,311,311,311,311,311,312,313,311,313,311,311,312,311,311,304,311,311,310,312,311,312,311,313,313,312,310,310,310,310,309,-26.0,1.0,31.0,-0.1220703050494194,0.0,-0.3662109076976776,-0.0196533203125,-0.0001220703125,0.986572265625
1719126038.691,309,301,302,310,310,311,311,311,311,311,311,311,311,310,312,310,311,310,311,311,302,308,311,311,311,312,299,299,314,313,299,301,302,300,299,-25.0,3.0,38.0,-0.1831054538488388,0.0,-0.30517578125,-0.02001953125,-0.0003662109375,0.9873046875
1719126038.702,300,299,311,310,311,311,311,311,310,311,312,311,310,311,311,311,308,311,311,311,311,311,311,311,311,313,313,313,311,311,310,310,310,309,310,-25.0,3.0,38.0,-0.1831054538488388,0.0,-0.30517578125,-0.02001953125,-0.0003662109375,0.9873046875
1719126038.711,302,311,310,311,310,311,311,313,312,310,311,311,311,310,311,311,311,313,311,310,311,313,311,311,311,311,311,311,313,313,309,311,310,310,310,-25.0,3.0,38.0,-0.1831054538488388,0.0,-0.3662109076976776,-0.0201416015625,-0.00048828125,0.9873046875
1719126038.721,311,310,311,310,310,311,311,311,311,311,311,311,311,311,307,311,311,312,311,311,311,311,311,312,311,311,313,313,313,304,310,310,308,310,311,-25.0,3.0,38.0,-0.1220703050494194,-0.0610351525247097,-0.3662109076976776,-0.0205078125,-0.0009765625,0.987548828125
1719126038.731,310,310,311,311,310,310,312,312,311,311,311,311,311,311,311,313,311,311,312,311,294,311,312,311,311,312,310,313,312,313,310,310,311,311,310,-25.0,3.0,38.0,-0.1220703050494194,-0.0610351525247097,-0.3662109076976776,-0.0203857421875,-0.001220703125,0.988037109375
1719126038.741,310,311,310,310,312,311,311,311,311,311,312,311,311,311,311,311,312,311,312,311,311,311,311,318,311,311,312,313,313,313,310,310,310,310,310,-25.0,3.0,38.0,-0.1220703050494194,-0.0610351525247097,-0.3662109076976776,-0.0203857421875,-0.000732421875,0.9886474609375
1719126038.751,310,310,310,310,311,311,311,311,302,304,312,312,311,311,311,311,311,311,311,310,311,311,311,311,311,311,311,311,311,311,310,308,306,309,310,-25.0,3.0,38.0,-0.1831054538488388,-0.0610351525247097,-0.30517578125,-0.020263671875,-0.0001220703125,0.9881591796875
1719126038.761,310,311,310,310,310,311,311,311,310,311,310,311,312,311,302,311,311,311,311,312,311,311,310,311,311,313,312,312,313,299,310,310,310,310,310,-25.0,3.0,38.0,-0.1831054538488388,-0.0610351525247097,-0.30517578125,-0.0201416015625,-0.0001220703125,0.98681640625
1719126038.771,310,311,300,311,311,310,312,312,312,311,310,310,311,312,311,311,311,311,311,310,313,301,298,299,310,312,311,311,311,312,310,309,310,310,310,-25.0,3.0,38.0,-0.1831054538488388,-0.0610351525247097,-0.30517578125,-0.0203857421875,-0.0006103515625,0.9866943359375
1719126038.782,310,310,310,311,310,310,310,311,311,310,311,311,311,311,310,311,311,312,311,311,311,312,311,311,310,311,312,311,312,311,309,310,310,310,310,-27.0,2.0,40.0,-0.1831054538488388,0.0,-0.30517578125,-0.020263671875,-0.0010986328125,0.9874267578125
1719126038.791,310,311,310,310,310,311,311,311,311,311,310,311,311,311,311,311,311,311,312,312,311,311,310,308,311,312,311,311,300,313,310,310,310,309,310,-27.0,2.0,40.0,-0.1220703050494194,-0.0610351525247097,-0.3662109076976776,-0.02001953125,-0.001220703125,0.9881591796875
1719126038.801,300,311,302,311,299,313,299,301,311,310,300,301,300,311,301,304,298,304,312,311,311,312,311,311,312,313,313,312,313,313,309,310,310,310,310,-27.0,2.0,40.0,-0.1220703050494194,-0.0610351525247097,-0.3662109076976776,-0.0205078125,-0.001220703125,0.9886474609375
1719126038.811,311,310,311,310,311,311,311,311,311,311,311,311,311,311,311,311,311,313,312,311,312,311,311,308,311,311,311,312,313,313,310,309,310,310,310,-27.0,2.0,40.0,-0.1831054538488388,-0.0610351525247097,-0.3662109076976776,-0.0211181640625,-0.0010986328125,0.9881591796875
1719126038.821,310,311,310,310,310,310,311,311,311,311,302,311,311,299,300,304,304,311,310,311,310,311,311,312,311,311,312,312,313,313,310,302,310,311,310,-27.0,2.0,40.0,-0.1831054538488388,-0.0610351525247097,-0.3662109076976776,-0.0213623046875,-0.0008544921875,0.987548828125
1719126038.831,310,310,311,311,310,311,312,311,310,311,310,311,311,311,310,312,311,311,311,313,311,312,311,311,311,313,312,313,313,312,310,310,310,310,311,-27.0,2.0,40.0,-0.1220703050494194,0.0,-0.3662109076976776,-0.0213623046875,-0.00048828125,0.9876708984375
1719126038.841,310,311,310,311,310,311,311,312,311,311,311,311,311,311,311,311,312,311,311,310,311,311,311,311,310,312,312,311,311,313,310,310,309,308,309,-27.0,2.0,40.0,-0.1220703050494194,-0.0610351525247097,-0.3662109076976776,-0.021240234375,-0.0003662109375,0.9881591796875
1719126038.851,311,311,310,311,311,310,311,311,311,310,311,311,311,311,311,311,311,312,311,310,310,310,312,311,311,311,311,312,312,312,310,310,310,310,310,-27.0,2.0,40.0,-0.1220703050494194,-0.0610351525247097,-0.30517578125,-0.0203857421875,-0.00048828125,0.9881591796875
1719126038.861,310,310,311,311,311,312,313,311,311,310,311,311,311,311,311,311,311,311,311,313,311,312,311,311,311,313,311,312,313,312,310,311,310,308,310,-27.0,2.0,40.0,-0.1831054538488388,0.0,-0.30517578125,-0.0194091796875,-0.000732421875,0.9874267578125
1719126038.871,310,311,311,310,310,312,310,312,310,311,311,311,311,311,311,312,311,311,311,311,312,310,311,311,311,313,312,311,313,311,302,310,310,310,300,-27.0,2.0,40.0,-0.1831054538488388,0.0,-0.3662109076976776,-0.0191650390625,-0.0006103515625,0.9869384765625
1719126038.891,309,311,310,311,310,311,311,311,311,312,311,311,311,311,311,310,311,308,311,311,311,310,311,311,312,311,312,313,312,312,311,310,310,310,310,-26.0,3.0,38.0,-0.1831054538488388,-0.0610351525247097,-0.3662109076976776,-0.0201416015625,-0.0006103515625,0.98681640625
1719126038.901,309,310,311,300,311,311,312,311,304,311,304,304,301,313,302,311,312,311,311,307,312,311,311,299,311,312,311,313,313,313,310,310,310,310,310,-26.0,3.0,38.0,-0.1831054538488388,-0.0610351525247097,-0.3662109076976776,-0.020263671875,-0.0006103515625,0.987548828125
1719126038.914,311,310,310,311,310,311,311,311,311,310,310,311,311,311,311,311,312,310,312,311,311,311,311,312,311,312,311,311,313,300,302,309,310,310,311,-26.0,3.0,38.0,-0.1220703050494194,0.0,-0.2441406100988388,-0.020263671875,-0.0006103515625,0.987548828125
1719126038.921,310,301,302,310,311,311,310,311,310,311,311,310,310,311,311,312,311,311,311,311,312,311,311,312,312,312,312,311,312,311,310,310,310,309,310,-26.0,3.0,38.0,-0.1220703050494194,0.0,-0.2441406100988388,-0.020751953125,-0.0008544921875,0.987548828125
1719126038.931,310,311,310,311,311,311,310,311,311,311,311,311,311,310,311,312,311,311,311,311,311,311,310,312,311,312,311,312,313,311,310,310,315,310,310,-26.0,3.0,38.0,-0.1220703050494194,-0.0610351525247097,-0.30517578125,-0.0213623046875,-0.001220703125,0.988037109375
1719126038.941,310,310,310,311,310,311,312,311,311,311,312,310,311,311,310,310,311,313,311,312,310,311,311,311,310,310,311,313,311,313,310,310,310,310,311,-26.0,3.0,38.0,-0.1220703050494194,-0.0610351525247097,-0.3662109076976776,-0.0205078125,-0.0008544921875,0.98876953125
1719126038.951,311,310,311,310,311,310,310,311,311,311,310,310,311,311,310,311,311,312,311,312,311,311,311,311,311,311,313,311,311,311,310,310,299,291,311,-26.0,3.0,38.0,-0.1220703050494194,-0.0610351525247097,-0.4272460639476776,-0.01953125,-0.000244140625,0.98876953125
1719126038.961,310,311,311,310,310,311,311,311,311,311,311,311,311,311,311,311,311,311,313,310,311,311,311,311,311,313,312,311,312,313,310,312,310,309,310,-26.0,3.0,38.0,-0.1831054538488388,0.0,-0.4272460639476776,-0.018798828125,-0.0003662109375,0.988525390625
1719126038.971,311,310,310,310,310,311,311,310,312,312,311,311,311,312,312,311,313,304,312,310,311,311,310,311,311,311,313,313,312,313,309,309,310,310,300,-26.0,3.0,38.0,-0.1831054538488388,0.0,-0.3662109076976776,-0.0189208984375,-0.001220703125,0.988037109375
1719126038.981,310,310,311,310,311,309,311,311,311,311,311,311,310,311,311,311,311,311,312,312,311,311,311,312,311,313,312,313,311,313,310,310,310,310,311,-26.0,3.0,38.0,-0.1220703050494194,0.0,-0.30517578125,-0.0196533203125,-0.00146484375,0.98779296875
1719126039.001,311,310,310,310,311,311,311,311,311,311,312,311,311,311,311,313,300,300,300,311,304,311,305,302,311,299,313,299,314,310,310,310,300,309,302,-28.0,5.0,45.0,-0.1831054538488388,0.0,-0.30517578125,-0.020263671875,-0.000244140625,0.988037109375
1719126039.013,310,310,310,310,312,311,313,312,311,312,313,302,302,300,312,311,312,311,312,311,311,312,311,311,310,313,313,313,311,312,310,310,310,310,309,-28.0,5.0,45.0,-0.1831054538488388,0.0,-0.30517578125,-0.0206298828125,-0.0006103515625,0.9876708984375
1719126039.022,310,311,308,311,310,310,311,311,311,311,310,310,312,311,312,311,304,311,311,311,312,311,312,311,312,312,311,311,312,313,310,311,310,309,310,-28.0,5.0,45.0,-0.1831054538488388,0.0,-0.30517578125,-0.0206298828125,-0.0010986328125,0.9879150390625
1719126039.031,310,311,311,310,309,312,310,311,312,311,310,311,311,310,311,311,311,312,311,312,311,310,311,311,311,312,311,311,313,311,311,310,310,310,310,-28.0,5.0,45.0,-0.1831054538488388,0.0,-0.30517578125,-0.0201416015625,-0.000732421875,0.9876708984375
1719126039.041,310,311,311,311,311,311,307,302,311,311,310,311,311,311,311,310,311,312,313,312,312,312,310,312,311,313,312,312,313,312,309,311,311,309,310,-28.0,5.0,45.0,-0.1220703050494194,0.0,-0.3662109076976776,-0.02001953125,-0.000244140625,0.9873046875
1719126039.051,310,310,311,310,311,311,311,312,313,312,311,313,311,311,311,311,311,311,311,311,312,311,311,312,311,313,311,311,312,312,311,311,300,310,310,-28.0,5.0,45.0,-0.1220703050494194,-0.0610351525247097,-0.3662109076976776,-0.0201416015625,-0.00048828125,0.987060546875
1719126039.061,309,311,311,311,311,312,311,311,311,312,310,311,313,310,311,311,311,311,310,312,311,312,311,311,312,312,313,312,312,312,311,310,310,310,311,-28.0,5.0,45.0,-0.1220703050494194,-0.1220703050494194,-0.3662109076976776,-0.0203857421875,-0.0006103515625,0.9873046875
1719126039.071,311,311,311,311,310,313,311,311,311,311,312,311,311,310,311,312,313,312,311,310,313,311,313,310,312,311,313,312,311,302,310,311,310,310,310,-28.0,5.0,45.0,-0.1220703050494194,-0.1220703050494194,-0.3662109076976776,-0.020263671875,0.0,0.9884033203125
1719126039.081,311,311,311,310,310,311,312,311,311,310,311,311,311,311,311,312,311,311,312,312,311,311,311,311,311,313,311,311,312,312,311,309,310,310,310,-28.0,3.0,39.0,-0.1831054538488388,-0.0610351525247097,-0.3662109076976776,-0.0203857421875,-0.0001220703125,0.98876953125
1719126039.101,311,311,312,311,311,300,300,302,311,300,310,302,301,301,301,299,299,308,302,302,299,296,311,311,300,314,311,312,311,311,310,310,310,308,310,-28.0,3.0,39.0,-0.1220703050494194,0.0,-0.3662109076976776,-0.0196533203125,-0.0008544921875,0.9884033203125
1719126039.114,309,310,304,310,311,313,299,302,310,311,312,302,311,312,311,302,302,304,311,311,311,311,311,310,311,313,311,312,313,312,310,310,300,308,310,-28.0,3.0,39.0,-0.1220703050494194,0.0,-0.3662109076976776,-0.0205078125,-0.000244140625,0.9879150390625
1719126039.124,311,310,310,311,310,311,312,311,312,310,311,311,312,311,313,312,311,311,311,312,312,311,311,311,311,313,313,312,312,313,310,310,310,310,310,-28.0,3.0,39.0,-0.1220703050494194,0.0,-0.3662109076976776,-0.0205078125,-0.000244140625,0.9879150390625
1719126039.131,310,310,311,311,310,311,311,311,311,311,311,313,311,311,311,310,312,312,312,311,311,311,312,311,311,313,313,312,313,311,311,310,310,310,310,-28.0,3.0,39.0,-0.1220703050494194,0.0,-0.3662109076976776,-0.0208740234375,-0.000244140625,0.98779296875
1719126039.141,310,310,310,310,310,311,311,311,310,311,311,311,311,313,311,311,312,304,302,311,310,311,311,312,311,311,312,312,313,312,310,310,310,310,310,-28.0,3.0,39.0,-0.1831054538488388,0.0,-0.3662109076976776,-0.020751953125,-0.0003662109375,0.98876953125
1719126039.151,310,311,311,310,310,310,312,312,311,311,312,311,311,312,310,313,311,311,312,312,311,311,311,311,313,313,300,304,313,299,310,304,300,310,301,-28.0,3.0,39.0,-0.1831054538488388,0.0,-0.3662109076976776,-0.0203857421875,-0.000244140625,0.9884033203125
1719126039.161,311,311,311,310,310,313,311,311,311,312,312,311,311,310,311,311,311,311,311,313,311,311,311,311,311,313,313,313,313,312,302,311,310,310,310,-28.0,3.0,39.0,-0.1831054538488388,0.0,-0.3662109076976776,-0.02001953125,-0.000244140625,0.9869384765625
1719126039.171,311,311,311,311,310,311,313,311,311,311,311,311,311,312,311,311,311,311,311,312,311,311,311,310,311,313,313,313,313,311,310,310,310,310,310,-28.0,3.0,39.0,-0.2441406100988388,0.0,-0.30517578125,-0.01953125,-0.0006103515625,0.9866943359375
1719126039.181,311,310,310,310,310,311,312,311,311,312,311,311,310,311,311,311,312,310,311,312,312,311,311,311,311,312,313,311,311,311,310,310,310,309,310,-23.0,5.0,38.0,-0.2441406100988388,0.0,-0.30517578125,-0.0191650390625,-0.000732421875,0.9874267578125
1719126039.201,310,311,310,311,310,311,312,310,311,312,310,312,311,311,311,313,313,311,311,312,312,311,311,312,310,312,312,313,312,311,310,310,310,309,310,-23.0,5.0,38.0,-0.1831054538488388,-0.0610351525247097,-0.30517578125,-0.01953125,-0.0010986328125,0.9876708984375
1719126039.211,299,311,311,310,300,312,312,312,313,311,311,304,311,311,313,311,311,311,311,312,311,312,312,311,311,312,312,313,299,312,302,311,310,304,310,-23.0,5.0,38.0,-0.1220703050494194,0.0,-0.3662109076976776,-0.0196533203125,-0.0010986328125,0.988037109375
1719126039.223,311,310,302,300,311,311,311,311,312,311,312,312,311,311,311,311,311,310,311,311,312,311,312,310,313,313,313,313,312,312,311,310,310,310,311,-23.0,5.0,38.0,-0.1220703050494194,0.0,-0.3662109076976776,-0.0196533203125,-0.0009765625,0.98876953125
1719126039.231,310,310,311,311,310,304,311,311,312,311,313,311,312,311,311,310,312,311,311,312,311,311,311,311,300,313,311,313,313,313,310,310,311,311,309,-23.0,5.0,38.0,-0.1220703050494194,-0.0610351525247097,-0.3662109076976776,-0.02001953125,-0.000244140625,0.9884033203125
1719126039.241,310,311,310,311,311,311,311,312,311,312,312,313,310,312,312,311,311,312,313,311,311,311,313,311,313,313,312,313,312,313,310,310,310,311,310,-23.0,5.0,38.0,-0.1220703050494194,-0.0610351525247097,-0.3662109076976776,-0.0208740234375,0.0,0.9871826171875
1719126039.251,310,311,310,311,311,311,311,311,311,313,312,311,311,313,311,311,311,313,313,308,312,312,312,312,310,313,312,312,313,313,311,310,309,310,312,-23.0,5.0,38.0,-0.1831054538488388,0.0,-0.3662109076976776,-0.02099609375,-0.0006103515625,0.986572265625
1719126039.262,306,310,311,311,310,312,312,311,310,310,311,311,313,311,311,311,311,311,311,311,311,311,311,311,311,313,312,312,312,311,310,310,310,310,309,-23.0,5.0,38.0,-0.1220703050494194,0.0,-0.3662109076976776,-0.02099609375,-0.001220703125,0.987060546875
1719126039.271,311,311,309,311,311,310,311,311,311,311,311,311,312,312,311,312,311,311,313,311,310,311,311,311,311,311,311,311,312,312,310,310,309,310,310,-23.0,5.0,38.0,-0.1831054538488388,-0.0610351525247097,-0.3662109076976776,-0.0206298828125,-0.0018310546875,0.987060546875
1719126039.281,309,311,310,310,304,310,311,311,310,311,311,311,312,311,311,311,312,311,311,311,311,311,311,311,311,313,312,311,312,312,311,307,312,310,310,-23.0,5.0,38.0,-0.1831054538488388,0.0,-0.30517578125,-0.0203857421875,-0.001708984375,0.9864501953125
1719126039.291,310,310,310,310,310,310,311,310,311,311,310,311,311,310,311,311,311,311,311,311,311,312,313,311,311,311,312,312,312,311,311,309,310,310,310,-26.0,2.0,40.0,-0.1831054538488388,0.0,-0.30517578125,-0.0203857421875,-0.0009765625,0.9862060546875
1719126039.311,310,311,310,311,300,311,304,300,304,299,304,302,308,300,302,302,312,312,300,311,311,312,311,311,311,312,312,312,311,312,310,311,310,310,309,-26.0,2.0,40.0,-0.1831054538488388,0.0,-0.30517578125,-0.0198974609375,0.000732421875,0.98828125
1719126039.324,311,310,311,310,310,312,311,312,311,311,311,311,312,310,311,311,311,311,311,312,311,312,312,311,310,312,312,313,312,310,310,310,310,310,310,-26.0,2.0,40.0,-0.1831054538488388,0.0,-0.30517578125,-0.0201416015625,-0.0010986328125,0.988037109375
1719126039.332,310,310,310,311,310,310,310,311,311,312,311,311,311,311,311,311,313,311,311,311,311,311,312,312,311,311,312,311,313,313,310,310,310,311,302,-26.0,2.0,40.0,-0.1831054538488388,0.0,-0.3662109076976776,-0.0201416015625,-0.0010986328125,0.988037109375
1719126039.341,310,310,311,310,310,311,311,311,311,311,311,311,310,311,311,311,310,312,311,311,311,311,310,311,311,313,311,312,312,313,310,309,307,311,310,-26.0,2.0,40.0,-0.1831054538488388,0.0,-0.3662109076976776,-0.020751953125,-0.0009765625,0.9879150390625
1719126039.351,302,310,311,310,310,310,311,311,312,311,311,312,312,311,311,311,308,311,311,311,311,311,311,311,313,312,312,313,313,312,308,311,311,308,310,-26.0,2.0,40.0,-0.1831054538488388,-0.0610351525247097,-0.3662109076976776,-0.0206298828125,-0.0003662109375,0.987060546875
1719126039.361,311,310,311,310,310,311,311,312,311,312,311,311,310,313,311,311,311,311,311,313,302,312,304,299,309,312,312,313,312,313,309,315,310,310,311,-26.0,2.0,40.0,-0.1831054538488388,-0.0610351525247097,-0.3662109076976776,-0.020263671875,-0.00048828125,0.9869384765625
1719126039.371,310,302,311,310,311,311,311,311,311,311,311,312,311,311,300,311,313,300,311,311,310,312,311,312,311,312,313,313,311,312,310,310,310,310,310,-26.0,2.0,40.0,-0.1831054538488388,-0.0610351525247097,-0.3662109076976776,-0.02001953125,-0.0009765625,0.9874267578125
1719126039.381,311,310,310,310,310,312,312,308,309,307,304,311,311,313,310,311,313,311,312,311,311,311,310,310,312,311,312,312,313,312,310,310,310,310,311,-26.0,2.0,59.0,-0.1831054538488388,-0.0610351525247097,-0.30517578125,-0.0203857421875,-0.001220703125,0.9881591796875
1719126039.391,310,310,311,310,310,310,311,312,311,311,311,311,313,310,311,310,311,312,311,311,311,311,312,312,311,312,312,312,312,313,308,310,310,310,310,-26.0,2.0,59.0,-0.1831054538488388,-0.0610351525247097,-0.30517578125,-0.0213623046875,-0.0013427734375,0.989013671875
1719126039.401,310,310,311,310,310,311,311,311,313,310,311,311,312,311,310,311,311,311,311,311,311,311,311,311,311,312,311,311,311,312,310,310,310,310,308,-26.0,2.0,59.0,-0.1831054538488388,0.0,-0.3662109076976776,-0.0216064453125,-0.0009765625,0.9891357421875
1719126039.411,310,311,311,311,311,311,312,310,311,311,311,311,311,311,310,311,311,311,311,310,312,311,310,311,312,312,313,311,312,311,309,310,307,311,318,-26.0,2.0,59.0,-0.1831054538488388,0.0,-0.3662109076976776,-0.0205078125,-0.0006103515625,0.9886474609375
1719126039.421,302,311,299,300,298,311,312,310,311,311,311,311,311,311,311,311,311,311,311,310,311,311,304,311,312,296,308,313,312,313,309,310,310,310,298,-26.0,2.0,59.0,-0.2441406100988388,0.0,-0.3662109076976776,-0.0194091796875,-0.000244140625,0.9884033203125
1719126039.431,310,310,310,311,311,311,311,311,311,311,311,311,311,311,311,311,311,311,311,310,311,311,310,311,311,311,311,311,311,311,309,310,310,310,312,-26.0,2.0,59.0,-0.1831054538488388,0.0,-0.3662109076976776,-0.019287109375,0.0,0.988525390625
1719126039.441,310,311,310,310,308,311,301,311,310,311,310,310,310,311,310,313,312,312,311,311,311,311,311,311,311,313,314,312,313,311,310,310,310,310,310,-26.0,2.0,59.0,-0.1831054538488388,0.0,-0.3662109076976776,-0.019775390625,0.0001220703125,0.98828125
1719126039.451,310,310,310,311,311,311,310,311,311,310,311,310,311,311,311,313,313,311,311,311,311,311,311,311,311,313,312,312,311,312,312,305,310,310,310,-26.0,2.0,59.0,-0.1831054538488388,0.0,-0.30517578125,-0.0206298828125,0.0001220703125,0.9879150390625
1719126039.461,310,311,311,311,311,311,311,311,312,312,311,311,311,312,311,311,311,312,312,310,311,311,310,311,311,311,313,311,312,311,310,310,310,310,310,-26.0,2.0,59.0,-0.1831054538488388,0.0,-0.30517578125,-0.0216064453125,0.0001220703125,0.987548828125
1719126039.471,310,311,309,310,310,311,311,310,311,313,311,311,310,311,312,311,311,310,310,310,311,310,313,311,311,313,312,312,311,312,310,300,338,302,310,-26.0,2.0,59.0,-0.1831054538488388,0.0,-0.30517578125,-0.021240234375,-0.00048828125,0.9876708984375
1719126039.481,310,310,311,310,311,311,310,312,313,310,310,310,310,311,304,310,312,308,311,300,299,304,311,311,311,311,311,313,313,311,322,310,310,310,310,-27.0,2.0,51.0,-0.1831054538488388,0.0,-0.3662109076976776,-0.020263671875,-0.0009765625,0.9881591796875
1719126039.491,310,310,310,310,311,310,311,311,311,311,311,311,310,311,311,312,311,308,310,311,310,311,312,311,311,311,312,313,313,312,311,310,310,310,309,-27.0,2.0,51.0,-0.1831054538488388,0.0,-0.30517578125,-0.0196533203125,-0.0009765625,0.98828125
1719126039.511,310,311,310,311,311,311,310,311,311,311,310,300,300,302,299,313,311,312,310,310,311,310,311,310,311,312,311,312,312,312,311,310,311,310,310,-27.0,2.0,51.0,-0.1831054538488388,-0.0610351525247097,-0.2441406100988388,-0.0196533203125,0.0001220703125,0.98779296875
1719126039.522,311,299,309,310,311,311,311,311,311,310,310,311,311,312,312,311,310,300,311,302,302,311,311,311,312,311,308,313,313,302,299,313,309,310,300,-27.0,2.0,51.0,-0.1831054538488388,-0.0610351525247097,-0.30517578125,-0.020751953125,0.0003662109375,0.988525390625
1719126039.534,311,310,311,311,311,311,310,312,310,311,311,311,311,311,311,313,312,311,311,311,311,311,311,311,312,305,312,313,313,311,308,310,310,310,308,-27.0,2.0,51.0,-0.1831054538488388,-0.0610351525247097,-0.3662109076976776,-0.0211181640625,0.000244140625,0.9881591796875
1719126039.542,311,311,311,310,310,311,311,311,313,311,311,311,311,311,311,311,311,311,310,311,311,312,311,311,310,313,313,311,313,311,310,310,310,308,310,-27.0,2.0,51.0,-0.1831054538488388,-0.0610351525247097,-0.3662109076976776,-0.0205078125,0.0,0.987548828125
1719126039.551,310,310,311,310,310,311,310,312,310,311,310,311,311,311,311,313,311,311,311,311,310,311,311,312,311,311,312,312,312,313,310,294,311,310,310,-27.0,2.0,51.0,-0.1220703050494194,-0.0610351525247097,-0.3662109076976776,-0.0198974609375,-0.0003662109375,0.987060546875
1719126039.561,309,311,311,310,310,311,312,311,311,311,310,311,312,311,311,311,311,311,311,312,311,312,311,310,311,312,313,313,312,313,310,310,310,310,310,-27.0,2.0,51.0,-0.1220703050494194,0.0,-0.3662109076976776,-0.019775390625,-0.0006103515625,0.9866943359375
1719126039.571,310,311,311,310,311,313,311,311,304,301,311,311,310,311,311,313,312,311,311,311,311,311,311,311,312,312,311,312,311,312,310,310,309,310,310,-27.0,2.0,51.0,-0.1831054538488388,0.0,-0.3662109076976776,-0.0198974609375,-0.0008544921875,0.9869384765625
1719126039.582,310,310,301,300,301,311,310,311,311,311,311,311,310,311,310,310,311,310,311,311,302,324,318,304,302,311,312,313,311,312,310,310,310,310,310,-28.0,6.0,57.0,-0.1831054538488388,0.0,-0.3662109076976776,-0.020263671875,-0.0008544921875,0.9871826171875
1719126039.592,310,310,311,311,311,311,311,311,311,311,311,310,311,311,311,311,311,311,311,311,311,310,311,311,311,311,313,312,311,311,308,309,309,310,310,-28.0,6.0,57.0,-0.1831054538488388,-0.0610351525247097,-0.3662109076976776,-0.0205078125,-0.000732421875,0.9873046875
1719126039.612,318,311,310,299,300,304,300,308,301,313,310,311,311,311,311,311,311,312,311,312,312,311,311,311,311,312,312,313,312,313,310,310,311,310,310,-28.0,6.0,57.0,-0.1220703050494194,-0.0610351525247097,-0.3662109076976776,-0.0203857421875,-0.0009765625,0.989013671875
1719126039.622,310,310,311,311,310,311,311,313,312,311,311,311,301,312,312,312,311,312,313,300,311,312,311,311,311,313,313,311,311,313,310,310,310,310,311,-28.0,6.0,57.0,-0.1220703050494194,0.0,-0.3662109076976776,-0.0196533203125,-0.0006103515625,0.9884033203125
1719126039.632,311,311,310,310,311,311,311,311,312,311,311,311,310,304,311,312,311,311,311,313,311,311,311,312,312,313,313,312,311,312,310,302,310,310,310,-28.0,6.0,57.0,-0.1220703050494194,0.0,-0.3662109076976776,-0.018798828125,-0.0009765625,0.9876708984375
1719126039.641,310,310,311,311,310,311,310,311,311,311,311,311,311,311,311,312,311,311,311,312,311,311,311,311,311,312,311,313,312,312,310,309,284,310,310,-28.0,6.0,57.0,-0.1220703050494194,-0.0610351525247097,-0.3662109076976776,-0.01904296875,-0.0015869140625,0.98779296875
1719126039.651,310,311,310,311,310,313,311,311,312,311,311,312,311,311,311,311,311,311,311,311,310,312,312,311,310,313,311,313,313,313,310,310,310,310,311,-28.0,6.0,57.0,-0.1220703050494194,-0.0610351525247097,-0.3662109076976776,-0.0194091796875,-0.00146484375,0.988037109375
1719126039.661,310,311,311,311,311,311,311,311,311,312,311,311,311,313,311,311,311,312,311,310,312,311,310,310,312,311,311,311,311,312,310,310,310,308,310,-28.0,6.0,57.0,-0.1831054538488388,-0.0610351525247097,-0.3662109076976776,-0.019287109375,-0.0013427734375,0.9873046875
1719126039.671,310,310,311,311,311,312,311,311,311,311,311,311,311,311,311,311,311,311,311,311,311,311,312,311,311,312,311,311,312,312,313,311,310,311,310,-28.0,6.0,57.0,-0.2441406100988388,-0.0610351525247097,-0.3662109076976776,-0.0191650390625,-0.0018310546875,0.98681640625
1719126039.681,308,311,310,310,310,310,311,310,311,311,310,312,312,310,310,310,311,311,311,311,310,311,311,311,311,311,311,312,311,311,310,310,310,310,310,-26.0,2.0,41.0,-0.2441406100988388,0.0,-0.3662109076976776,-0.0194091796875,-0.0018310546875,0.987060546875
1719126039.691,310,310,311,310,310,311,312,311,310,311,311,311,311,313,311,311,312,312,311,311,311,313,310,311,311,313,313,313,300,311,310,310,310,310,310,-26.0,2.0,41.0,-0.1831054538488388,0.0,-0.3662109076976776,-0.01953125,-0.00146484375,0.9874267578125
1719126039.701,310,311,310,311,310,311,311,311,312,311,311,311,310,311,311,311,312,313,312,311,312,311,311,312,311,312,312,311,312,312,310,309,304,310,310,-26.0,2.0,41.0,-0.1831054538488388,0.0,-0.3662109076976776,-0.02001953125,-0.0009765625,0.9876708984375
1719126039.711,311,310,310,310,310,311,311,311,310,311,310,311,310,311,310,311,311,311,312,311,311,311,311,311,310,311,311,312,313,311,310,310,310,310,310,-26.0,2.0,41.0,-0.1831054538488388,0.0,-0.3662109076976776,-0.0201416015625,-0.0008544921875,0.9873046875
1719126039.721,310,311,311,310,311,311,311,311,311,313,311,311,311,312,312,311,311,312,311,311,311,310,311,313,311,311,310,312,312,312,310,310,309,310,310,-26.0,2.0,41.0,-0.1831054538488388,0.0,-0.3662109076976776,-0.0201416015625,-0.001220703125,0.9876708984375
1719126039.731,300,312,299,310,307,311,301,311,312,300,312,311,310,300,312,309,311,311,312,312,310,310,312,312,311,312,312,312,311,312,297,310,310,310,310,-26.0,2.0,41.0,-0.1831054538488388,0.0,-0.3662109076976776,-0.020263671875,-0.0008544921875,0.9886474609375
1719126039.741,310,302,300,313,310,311,308,311,310,311,311,311,310,311,310,311,311,311,312,312,310,312,311,311,311,312,312,312,312,311,310,310,310,310,310,-26.0,2.0,41.0,-0.1831054538488388,0.0,-0.30517578125,-0.0201416015625,0.0,0.98828125
1719126039.751,310,311,311,312,311,311,311,311,310,311,310,311,311,311,311,311,311,311,311,311,312,311,311,311,312,311,312,311,312,312,310,310,310,299,310,-26.0,2.0,41.0,-0.1831054538488388,-0.0610351525247097,-0.30517578125,-0.020263671875,0.0001220703125,0.9876708984375
1719126039.761,310,311,310,310,310,312,311,311,310,310,311,310,311,312,311,312,311,311,310,313,312,310,313,310,310,313,313,311,311,312,310,310,310,310,311,-26.0,2.0,41.0,-0.1220703050494194,-0.0610351525247097,-0.30517578125,-0.02001953125,-0.000732421875,0.9876708984375
1719126039.771,310,311,310,310,311,311,311,310,311,310,311,311,312,312,311,310,304,311,311,311,312,311,311,311,311,311,313,313,313,311,310,311,308,311,310,-26.0,2.0,41.0,-0.1831054538488388,0.0,-0.30517578125,-0.0198974609375,-0.001220703125,0.987548828125
1719126039.781,310,310,311,311,310,311,311,311,311,311,311,311,310,311,311,311,310,312,310,311,311,310,311,311,311,311,312,313,313,312,302,299,304,315,310,-27.0,4.0,38.0,-0.1831054538488388,0.0,-0.30517578125,-0.020263671875,-0.0006103515625,0.9873046875
1719126039.791,310,310,311,311,310,318,311,311,311,311,312,311,310,311,312,311,311,311,311,312,311,311,311,311,312,311,311,312,311,311,310,289,310,310,310,-27.0,4.0,38.0,-0.1831054538488388,0.0,-0.30517578125,-0.0201416015625,0.0,0.9873046875
1719126039.801,310,310,311,310,310,311,311,311,311,311,310,311,311,311,311,310,311,313,311,311,311,311,311,313,311,311,312,311,313,312,309,310,310,310,310,-27.0,4.0,38.0,-0.1220703050494194,0.0,-0.30517578125,-0.0203857421875,0.0003662109375,0.9879150390625
1719126039.811,310,311,310,310,310,311,311,312,311,311,311,311,311,311,311,313,311,311,311,312,311,299,311,310,311,312,313,304,298,313,310,310,311,309,308,-27.0,4.0,38.0,-0.1220703050494194,-0.0610351525247097,-0.3662109076976776,-0.0205078125,0.000244140625,0.9886474609375
1719126039.821,299,310,311,300,311,311,311,312,311,304,302,300,312,311,311,311,311,311,312,312,310,311,311,312,311,313,312,312,313,313,310,310,310,311,310,-27.0,4.0,38.0,-0.1220703050494194,-0.0610351525247097,-0.3662109076976776,-0.0203857421875,-0.0009765625,0.9884033203125
1719126039.832,311,310,311,310,310,310,311,311,311,311,310,311,311,312,311,311,311,302,310,311,298,308,313,311,311,311,311,313,311,311,310,311,310,310,310,-27.0,4.0,38.0,-0.1831054538488388,-0.0610351525247097,-0.3662109076976776,-0.0205078125,-0.001220703125,0.98779296875
1719126039.841,311,310,310,312,311,311,312,304,311,311,311,312,311,311,311,312,311,312,312,311,313,311,311,311,311,311,311,312,312,312,304,309,310,310,310,-27.0,4.0,38.0,-0.1831054538488388,-0.0610351525247097,-0.3662109076976776,-0.0208740234375,-0.00048828125,0.987548828125
1719126039.851,311,310,310,310,311,311,311,310,312,311,312,310,310,311,310,311,311,312,311,310,311,311,311,311,311,311,311,311,311,312,310,310,310,310,311,-27.0,4.0,38.0,-0.1831054538488388,0.0,-0.3662109076976776,-0.0206298828125,-0.000732421875,0.987548828125
1719126039.861,310,310,311,310,310,311,311,313,311,311,311,311,310,311,310,312,312,310,311,311,312,310,312,311,311,311,312,312,311,312,310,310,313,310,310,-27.0,4.0,38.0,-0.1831054538488388,0.0,-0.3662109076976776,-0.02001953125,-0.000732421875,0.9876708984375
1719126039.871,310,310,311,310,310,310,311,311,313,311,311,311,311,310,311,311,311,311,311,311,311,312,311,311,311,312,312,313,310,312,310,310,310,308,310,-27.0,4.0,38.0,-0.1220703050494194,0.0,-0.30517578125,-0.0198974609375,-0.0006103515625,0.9879150390625
1719126039.881,310,311,310,310,310,311,311,311,313,311,311,311,311,311,311,312,311,311,310,312,302,311,313,311,312,312,313,313,313,312,309,310,310,310,310,-27.0,4.0,38.0,-0.1220703050494194,0.0,-0.30517578125,-0.0198974609375,-0.000732421875,0.9884033203125
1719126039.891,310,310,311,311,310,311,311,312,311,310,311,310,305,304,300,307,311,311,310,311,311,311,311,311,310,311,312,312,312,313,310,309,310,310,310,-28.0,6.0,45.0,-0.0610351525247097,0.0,-0.30517578125,-0.0205078125,-0.0006103515625,0.9884033203125
1719126039.901,310,311,311,310,310,311,312,311,310,311,311,311,311,311,311,311,312,311,311,311,311,311,312,310,311,311,311,310,312,313,310,310,310,294,309,-28.0,6.0,45.0,-0.1220703050494194,-0.0610351525247097,-0.3662109076976776,-0.0208740234375,-0.00048828125,0.988037109375
1719126039.911,310,300,310,310,310,311,311,311,310,311,311,311,312,311,312,311,310,311,311,312,311,311,311,312,311,313,311,312,311,313,310,310,315,310,310,-28.0,6.0,45.0,-0.1831054538488388,-0.0610351525247097,-0.3662109076976776,-0.0211181640625,-0.0009765625,0.9879150390625
1719126039.921,310,310,310,311,310,311,310,310,311,311,311,311,310,311,312,311,311,312,310,312,299,308,311,310,310,311,312,313,312,311,310,310,310,310,310,-28.0,6.0,45.0,-0.1831054538488388,-0.0610351525247097,-0.3662109076976776,-0.021240234375,-0.0010986328125,0.9876708984375
1719126039.931,310,310,311,310,311,311,311,311,312,310,311,311,310,312,311,311,311,311,312,311,311,311,312,311,311,313,312,313,311,311,310,310,310,310,310,-28.0,6.0,45.0,-0.1220703050494194,0.0,-0.30517578125,-0.020751953125,-0.0006103515625,0.98779296875
1719126039.941,299,300,302,311,310,311,311,311,312,311,310,311,310,310,311,311,311,311,300,311,311,310,311,311,311,312,312,311,311,311,310,310,310,310,310,-28.0,6.0,45.0,-0.1220703050494194,0.0,-0.3662109076976776,-0.019775390625,-0.000732421875,0.9888916015625
1719126039.951,311,310,310,310,310,310,311,311,310,311,311,311,310,312,312,312,311,312,311,311,311,311,311,311,312,313,312,311,312,311,310,309,312,310,310,-28.0,6.0,45.0,-0.1220703050494194,0.0,-0.4272460639476776,-0.0191650390625,-0.0003662109375,0.9896240234375
1719126039.961,302,311,310,310,311,313,311,311,312,310,311,311,312,311,312,311,311,310,312,311,311,311,310,311,311,312,312,311,311,311,310,310,311,310,310,-28.0,6.0,45.0,-0.1220703050494194,0.0,-0.3662109076976776,-0.0196533203125,0.000244140625,0.9884033203125
1719126039.971,310,311,310,310,311,311,311,310,311,311,311,302,301,312,311,311,311,312,311,311,311,312,311,312,311,312,312,313,311,312,311,310,310,310,311,-28.0,6.0,45.0,-0.1220703050494194,-0.0610351525247097,-0.3662109076976776,-0.02001953125,-0.000244140625,0.9871826171875
1719126039.981,311,310,310,310,310,312,311,311,311,310,311,311,311,311,311,311,310,312,311,311,311,310,311,310,311,313,311,313,312,313,310,310,310,310,310,-26.0,4.0,35.0,-0.1220703050494194,-0.0610351525247097,-0.3662109076976776,-0.020263671875,-0.0008544921875,0.9876708984375
1719126039.991,310,310,309,310,310,313,311,311,311,311,313,313,312,304,311,313,311,311,311,311,312,311,311,313,312,311,311,312,313,311,310,310,308,310,310,-26.0,4.0,35.0,-0.1831054538488388,-0.0610351525247097,-0.3662109076976776,-0.0201416015625,-0.000732421875,0.98779296875
1719126040.011,310,310,310,310,310,311,310,312,311,312,311,311,311,311,311,311,311,311,310,313,312,310,311,311,312,312,312,311,313,313,310,310,310,309,311,-26.0,4.0,35.0,-0.1831054538488388,0.0,-0.30517578125,-0.02001953125,-0.0003662109375,0.98681640625
1719126040.021,310,311,310,311,310,300,301,313,312,304,311,310,308,312,311,312,310,300,298,302,299,295,299,311,311,300,311,314,315,302,300,310,310,300,300,-26.0,4.0,35.0,-0.1220703050494194,0.0,-0.30517578125,-0.019775390625,-0.000732421875,0.9873046875
1719126040.034,310,311,311,310,310,302,301,312,311,311,313,313,311,311,311,311,312,311,311,311,312,311,311,310,312,313,311,311,312,313,311,310,310,310,310,-26.0,4.0,35.0,-0.1220703050494194,-0.0610351525247097,-0.30517578125,-0.0194091796875,-0.001708984375,0.988037109375
1719126040.042,310,310,310,310,311,299,312,310,304,304,304,310,311,310,311,311,311,311,311,312,310,312,311,313,311,311,311,312,313,314,310,310,310,309,310,-26.0,4.0,35.0,-0.1831054538488388,-0.0610351525247097,-0.3662109076976776,-0.0198974609375,-0.0018310546875,0.9884033203125
1719126040.052,310,310,311,311,311,313,311,311,311,311,311,311,311,311,306,311,311,311,311,311,311,311,312,311,312,312,313,311,312,312,310,311,310,310,310,-26.0,4.0,35.0,-0.1831054538488388,0.0,-0.3662109076976776,-0.020263671875,-0.0010986328125,0.9884033203125
1719126040.061,311,311,310,310,310,312,311,310,312,311,311,311,310,311,313,312,311,311,311,311,311,311,311,311,313,311,311,311,313,313,310,310,307,308,310,-26.0,4.0,35.0,-0.1831054538488388,0.0,-0.4272460639476776,-0.019775390625,-0.00048828125,0.9884033203125
1719126040.071,310,310,310,310,311,311,310,311,313,311,311,311,312,310,310,310,311,311,311,311,311,311,311,313,311,311,313,311,311,312,310,310,310,310,310,-26.0,4.0,35.0,-0.1831054538488388,0.0610351525247097,-0.4272460639476776,-0.019775390625,0.000244140625,0.9886474609375
1719126040.081,310,310,310,310,310,311,311,311,311,311,304,305,299,311,311,311,312,311,313,312,311,310,312,312,311,313,310,312,312,313,310,310,308,310,310,-26.0,4.0,35.0,-0.1220703050494194,0.0610351525247097,-0.3662109076976776,-0.0203857421875,0.0008544921875,0.988037109375
1719126040.091,310,310,311,311,310,311,311,311,311,312,311,311,311,311,308,311,310,312,311,311,311,311,310,311,311,312,313,312,313,312,310,309,310,310,310,-26.0,3.0,38.0,-0.1831054538488388,0.0610351525247097,-0.30517578125,-0.0206298828125,0.00048828125,0.9876708984375
1719126040.101,310,310,311,310,310,310,311,310,311,312,311,312,310,311,311,311,311,311,311,311,311,311,311,311,312,313,311,311,312,311,310,310,310,310,308,-26.0,3.0,38.0,-0.1831054538488388,0.0,-0.3662109076976776,-0.020263671875,-0.000244140625,0.98779296875
1719126040.121,311,310,311,310,310,311,311,310,311,311,310,311,310,311,310,311,311,311,311,300,296,301,298,294,304,300,299,300,308,313,300,300,309,293,311,-26.0,3.0,38.0,-0.1220703050494194,0.0,-0.3662109076976776,-0.019287109375,-0.0010986328125,0.9884033203125
1719126040.134,310,302,299,302,291,311,311,311,311,312,311,311,311,311,311,311,312,312,311,312,311,311,300,300,313,308,312,313,308,311,310,309,309,286,310,-26.0,3.0,38.0,-0.1220703050494194,-0.0610351525247097,-0.30517578125,-0.02001953125,-0.001953125,0.9881591796875
1719126040.145,311,309,310,311,311,311,310,311,311,311,310,311,312,300,311,313,311,299,304,300,298,311,310,311,312,312,312,312,310,313,310,310,310,310,310,-26.0,3.0,38.0,-0.1220703050494194,-0.0610351525247097,-0.30517578125,-0.020263671875,-0.001953125,0.9879150390625
1719126040.153,311,310,311,311,310,311,311,312,305,311,312,300,304,302,304,311,312,322,311,311,311,310,310,311,312,311,311,313,311,313,310,308,310,310,310,-26.0,3.0,38.0,-0.1220703050494194,-0.0610351525247097,-0.30517578125,-0.0201416015625,-0.0009765625,0.9876708984375
1719126040.162,311,311,310,311,310,311,311,311,311,311,311,311,311,311,311,311,311,311,312,311,311,310,311,312,311,313,311,313,312,312,307,309,310,310,310,-26.0,3.0,38.0,-0.1220703050494194,0.0,-0.30517578125,-0.0201416015625,0.0,0.987548828125
1719126040.171,310,311,310,310,310,311,312,311,311,312,311,313,310,310,307,308,313,312,311,311,311,311,311,311,311,312,311,312,313,313,310,323,310,310,310,-26.0,3.0,38.0,-0.1831054538488388,0.0,-0.30517578125,-0.020263671875,-0.0003662109375,0.987548828125
1719126040.181,311,311,310,311,310,311,311,311,311,311,310,311,310,311,306,310,313,311,311,311,311,311,311,311,311,311,311,313,312,311,310,310,304,310,310,-28.0,3.0,44.0,-0.1831054538488388,0.0,-0.3662109076976776,-0.0196533203125,-0.000732421875,0.987060546875
1719126040.191,310,311,311,311,310,311,311,311,311,311,311,310,311,311,311,311,311,311,310,311,311,311,312,310,311,312,312,313,311,313,310,310,302,330,309,-28.0,3.0,44.0,-0.1831054538488388,0.0,-0.3662109076976776,-0.01953125,-0.0006103515625,0.986572265625
1719126040.201,311,310,310,310,318,307,310,304,306,312,311,311,311,311,312,311,312,312,312,311,312,311,311,310,312,312,312,312,312,312,310,310,310,310,310,-28.0,3.0,44.0,-0.1220703050494194,0.0,-0.3662109076976776,-0.0194091796875,-0.000732421875,0.9869384765625
1719126040.221,310,312,310,311,310,311,310,311,312,311,312,311,311,311,310,311,312,310,311,310,311,311,302,312,312,313,313,310,313,311,310,309,322,310,311,-28.0,3.0,44.0,-0.1220703050494194,-0.0610351525247097,-0.4272460639476776,-0.019287109375,-0.001220703125,0.989013671875
1719126040.231,311,302,301,312,311,304,302,311,312,302,302,312,311,302,311,298,312,300,300,311,310,310,298,299,312,299,312,312,306,311,311,309,310,311,310,-28.0,3.0,44.0,-0.1220703050494194,0.0,-0.4272460639476776,-0.02001953125,-0.00048828125,0.98876953125
1719126040.244,310,311,310,311,310,311,310,311,311,311,312,310,311,312,311,313,311,312,312,312,312,312,312,311,311,312,312,314,313,312,311,310,310,310,310,-28.0,3.0,44.0,-0.1220703050494194,0.0,-0.3662109076976776,-0.02001953125,0.0008544921875,0.9873046875
1719126040.251,302,312,311,310,311,311,311,312,310,311,311,302,311,311,311,311,310,310,313,311,311,311,310,311,311,312,311,312,312,313,310,312,310,310,310,-28.0,3.0,44.0,-0.1220703050494194,0.0,-0.3662109076976776,-0.020263671875,0.000732421875,0.987060546875
1719126040.261,310,311,311,310,311,311,311,311,311,312,310,311,311,310,310,311,311,311,311,311,312,311,312,311,313,312,311,312,313,311,310,310,310,310,311,-28.0,3.0,44.0,-0.1831054538488388,0.0,-0.30517578125,-0.021240234375,-0.0003662109375,0.9879150390625
1719126040.271,310,310,311,310,310,311,311,312,312,311,311,311,311,311,311,312,311,310,313,312,312,311,311,311,311,313,311,312,311,313,310,310,311,310,310,-28.0,3.0,44.0,-0.1831054538488388,-0.0610351525247097,-0.30517578125,-0.021240234375,-0.001220703125,0.988037109375
1719126040.281,310,310,311,310,311,312,311,311,311,311,311,310,310,311,311,311,311,311,311,311,311,311,311,311,311,312,312,311,313,313,309,310,310,311,310,-28.0,3.0,44.0,-0.1831054538488388,-0.1220703050494194,-0.30517578125,-0.0205078125,-0.001220703125,0.98779296875
1719126040.291,311,311,310,310,311,312,311,310,311,311,311,312,311,311,311,311,311,311,311,302,311,307,311,300,309,309,311,312,313,311,311,310,310,310,311,-29.0,7.0,39.0,-0.1831054538488388,-0.0610351525247097,-0.3662109076976776,-0.02001953125,-0.0008544921875,0.9874267578125
1719126040.301,311,310,310,311,311,311,311,311,311,311,311,311,311,311,311,311,312,310,311,312,311,311,311,308,310,307,313,313,311,311,310,310,310,310,310,-29.0,7.0,39.0,-0.1831054538488388,0.0,-0.3662109076976776,-0.01953125,-0.0008544921875,0.9873046875
1719126040.311,310,310,311,310,311,311,311,310,311,311,311,311,311,311,311,311,312,304,310,311,311,311,311,311,311,311,313,311,311,313,311,310,310,310,310,-29.0,7.0,39.0,-0.1831054538488388,0.0,-0.3662109076976776,-0.01953125,-0.00048828125,0.987548828125
1719126040.331,310,310,311,312,311,311,311,311,311,312,311,311,312,311,311,312,312,304,299,302,300,311,309,300,311,300,313,304,312,313,310,311,311,310,301,-29.0,7.0,39.0,-0.1831054538488388,0.0,-0.30517578125,-0.020263671875,0.0001220703125,0.9866943359375
1719126040.343,311,311,310,311,311,313,311,311,311,311,311,311,304,312,300,315,313,299,298,302,313,300,312,312,298,312,299,304,310,304,310,311,310,311,310,-29.0,7.0,39.0,-0.1831054538488388,0.0,-0.30517578125,-0.020751953125,-0.000244140625,0.986328125
1719126040.353,311,310,310,310,311,313,310,311,312,311,311,311,310,312,312,311,312,300,311,311,298,296,311,311,311,312,312,311,311,312,310,310,310,310,310,-29.0,7.0,39.0,-0.1831054538488388,0.0,-0.3662109076976776,-0.0206298828125,-0.00048828125,0.9869384765625
1719126040.362,310,310,310,310,310,311,312,311,311,311,312,311,311,311,311,313,312,311,311,313,311,311,300,312,311,311,313,313,312,313,310,311,310,310,310,-29.0,7.0,39.0,-0.1220703050494194,0.0,-0.3662109076976776,-0.0201416015625,-0.000244140625,0.98779296875
1719126040.372,311,310,311,310,310,311,311,311,311,312,311,311,311,311,312,311,311,312,310,313,311,311,312,312,311,313,312,312,312,311,311,310,310,310,310,-29.0,7.0,39.0,-0.1220703050494194,0.0,-0.3662109076976776,-0.020263671875,-0.0006103515625,0.9879150390625
1719126040.382,310,310,311,310,310,310,311,311,311,313,311,304,311,311,312,311,312,313,310,310,311,311,311,310,310,313,312,312,311,313,310,310,310,311,311,-29.0,7.0,39.0,-0.1831054538488388,-0.0610351525247097,-0.30517578125,-0.02099609375,-0.0010986328125,0.987548828125
1719126040.391,310,311,311,310,310,311,311,311,311,311,313,312,312,311,311,311,312,310,311,313,311,311,312,310,311,311,312,312,311,313,310,310,310,310,309,-26.0,2.0,40.0,-0.1831054538488388,-0.0610351525247097,-0.30517578125,-0.0211181640625,-0.0009765625,0.9876708984375
1719126040.402,311,311,310,310,311,310,310,312,311,311,311,310,311,311,311,313,312,312,311,311,312,313,311,311,310,313,313,312,311,313,310,310,311,310,310,-26.0,2.0,40.0,-0.2441406100988388,-0.0610351525247097,-0.30517578125,-0.020751953125,-0.0006103515625,0.98779296875
1719126040.411,310,311,310,311,311,312,311,311,311,311,311,310,311,312,312,311,312,311,313,311,311,312,311,313,311,313,312,311,311,313,310,310,310,310,310,-26.0,2.0,40.0,-0.1831054538488388,0.0,-0.30517578125,-0.0205078125,-0.00048828125,0.9871826171875
1719126040.431,310,311,310,311,310,311,311,311,311,311,311,311,311,311,311,312,313,307,311,311,311,312,311,311,310,313,312,313,312,312,310,310,311,310,298,-26.0,2.0,40.0,-0.1220703050494194,-0.0610351525247097,-0.3662109076976776,-0.0194091796875,-0.00146484375,0.9862060546875
1719126040.441,304,310,310,311,304,300,301,302,308,311,311,302,310,312,312,311,313,312,311,311,310,311,312,311,312,313,313,304,308,304,310,310,300,315,310,-26.0,2.0,40.0,-0.1220703050494194,-0.0610351525247097,-0.3662109076976776,-0.01953125,-0.000244140625,0.986328125
1719126040.454,310,310,311,310,310,311,312,311,310,311,313,311,311,310,311,312,311,311,311,311,312,310,313,311,311,313,312,313,311,313,310,310,310,310,310,-26.0,2.0,40.0,-0.1220703050494194,-0.0610351525247097,-0.30517578125,-0.019775390625,-0.000244140625,0.9869384765625
1719126040.461,300,310,312,301,300,311,312,311,311,311,311,311,311,313,311,313,311,311,312,311,311,312,312,311,311,311,313,313,311,312,311,311,310,309,310,-26.0,2.0,40.0,-0.1220703050494194,-0.0610351525247097,-0.30517578125,-0.01953125,-0.0008544921875,0.98779296875
1719126040.472,311,310,311,310,311,311,311,310,311,311,311,311,311,311,311,311,312,311,311,312,311,311,313,311,311,312,312,312,312,313,311,310,310,310,310,-26.0,2.0,40.0,-0.1220703050494194,-0.0610351525247097,-0.30517578125,-0.01953125,-0.0008544921875,0.98779296875
1719126040.481,310,310,311,311,311,310,311,311,313,311,311,311,311,311,311,313,311,311,311,311,311,311,311,311,311,302,313,313,313,313,310,311,310,309,310,-26.0,2.0,40.0,-0.1220703050494194,-0.0610351525247097,-0.30517578125,-0.020263671875,-0.0009765625,0.988037109375
1719126040.491,310,311,311,311,311,310,311,311,312,311,312,304,311,311,311,312,311,311,311,312,311,311,311,312,311,311,312,313,312,313,310,310,310,309,310,-26.0,2.0,39.0,-0.1831054538488388,0.0,-0.30517578125,-0.020751953125,-0.0009765625,0.9879150390625
1719126040.501,310,310,311,310,311,311,313,311,311,311,300,311,311,310,311,311,312,311,311,313,311,311,311,310,311,313,312,312,313,313,310,309,310,310,311,-26.0,2.0,39.0,-0.1831054538488388,0.0,-0.30517578125,-0.020751953125,-0.0009765625,0.9879150390625
1719126040.521,309,310,310,311,311,311,311,310,311,311,312,311,311,311,311,311,311,311,311,312,312,311,311,311,318,310,312,312,313,313,310,309,310,310,310,-26.0,2.0,39.0,-0.1220703050494194,0.0,-0.3662109076976776,-0.0198974609375,-0.00048828125,0.988037109375
1719126040.531,310,311,310,310,310,311,311,311,310,311,311,311,311,312,311,311,311,311,310,311,311,311,311,310,311,313,313,312,311,313,310,310,310,310,310,-26.0,2.0,39.0,-0.1831054538488388,0.0,-0.30517578125,-0.0198974609375,-0.00048828125,0.988037109375
1719126040.541,310,311,311,310,310,311,311,310,311,311,312,311,311,311,312,310,313,311,313,311,311,312,312,310,311,311,311,311,312,310,310,310,310,310,308,-26.0,2.0,39.0,-0.1831054538488388,0.0,-0.30517578125,-0.019775390625,-0.0010986328125,0.9884033203125
1719126040.551,300,311,299,299,310,304,301,302,300,311,311,311,311,310,313,311,311,304,305,310,313,307,313,298,312,311,313,312,311,313,310,310,310,299,310,-26.0,2.0,39.0,-0.1831054538488388,-0.0610351525247097,-0.30517578125,-0.0198974609375,-0.001220703125,0.989013671875
1719126040.563,310,311,311,311,311,312,311,313,311,311,313,311,311,310,311,311,311,311,311,310,312,311,311,311,310,313,307,311,312,313,310,310,310,310,310,-26.0,2.0,39.0,-0.1831054538488388,-0.0610351525247097,-0.3662109076976776,-0.0201416015625,-0.0008544921875,0.9884033203125
1719126040.571,311,310,310,311,311,311,311,311,311,312,311,311,311,312,311,311,313,313,310,311,311,311,311,310,311,311,312,311,311,311,310,309,308,310,310,-26.0,2.0,39.0,-0.1831054538488388,-0.0610351525247097,-0.3662109076976776,-0.0205078125,-0.00048828125,0.987060546875
1719126040.581,310,311,311,311,310,311,312,311,312,311,311,311,311,312,312,312,311,312,311,311,311,311,311,312,311,313,311,312,311,313,311,310,311,310,311,-26.0,2.0,39.0,-0.1831054538488388,-0.0610351525247097,-0.3662109076976776,-0.0203857421875,-0.00048828125,0.986328125
1719126040.591,310,311,310,311,310,311,311,310,311,312,311,311,313,311,311,311,311,312,312,311,312,311,312,312,311,311,311,312,312,313,300,298,311,309,310,-25.0,3.0,38.0,-0.1831054538488388,0.0,-0.3662109076976776,-0.019775390625,-0.0008544921875,0.986572265625
1719126040.601,310,302,318,310,310,311,311,310,311,312,311,312,311,311,311,311,311,312,313,313,307,311,299,311,311,313,312,312,312,313,291,296,311,310,310,-25.0,3.0,38.0,-0.2441406100988388,0.0,-0.3662109076976776,-0.019287109375,-0.0010986328125,0.98779296875
1719126040.621,309,304,310,311,310,310,310,311,310,310,310,311,311,311,311,311,311,311,312,311,311,312,311,311,313,311,311,312,311,313,310,310,310,310,310,-25.0,3.0,38.0,-0.1831054538488388,0.0,-0.3662109076976776,-0.02001953125,-0.0009765625,0.9879150390625
1719126040.631,310,310,310,310,310,311,311,311,311,311,311,311,311,311,311,312,311,311,311,311,312,311,311,311,312,311,313,313,313,312,310,310,311,310,310,-25.0,3.0,38.0,-0.1831054538488388,0.0,-0.3662109076976776,-0.020263671875,-0.001220703125,0.988525390625
1719126040.641,310,311,310,310,311,304,311,311,313,311,311,312,312,311,300,312,311,311,302,311,299,312,299,309,300,308,312,312,313,313,310,310,311,308,310,-25.0,3.0,38.0,-0.1831054538488388,0.0,-0.3662109076976776,-0.0203857421875,-0.000732421875,0.989013671875
1719126040.653,304,301,309,310,300,311,311,310,312,311,300,312,310,311,310,311,311,311,313,311,311,311,311,312,312,312,313,311,313,312,302,310,310,310,310,-25.0,3.0,38.0,-0.1831054538488388,0.0,-0.30517578125,-0.020263671875,-0.0003662109375,0.9888916015625
1719126040.663,310,311,310,310,310,311,311,311,310,311,312,311,311,311,310,311,312,311,311,310,312,311,311,310,311,313,313,312,311,310,311,310,299,311,310,-25.0,3.0,38.0,-0.1220703050494194,0.0,-0.30517578125,-0.02001953125,-0.001220703125,0.988525390625
1719126040.671,310,310,310,311,310,311,311,311,311,311,311,311,311,302,311,312,311,311,312,311,312,310,311,311,311,313,311,311,312,312,310,310,308,311,312,-25.0,3.0,38.0,-0.1831054538488388,0.0,-0.3662109076976776,-0.020263671875,-0.001220703125,0.9888916015625
1719126040.681,308,310,310,308,310,310,311,311,311,299,312,312,311,312,310,311,311,312,311,311,310,313,312,300,313,311,304,304,310,310,308,310,310,310,310,-25.0,3.0,38.0,-0.1831054538488388,0.0,-0.3662109076976776,-0.020263671875,-0.001220703125,0.9888916015625
1719126040.691,310,310,310,310,310,311,311,311,311,311,311,311,311,312,311,311,311,311,311,305,311,313,312,311,312,313,311,311,311,312,310,308,310,310,310,-29.0,3.0,42.0,-0.1831054538488388,0.0,-0.30517578125,-0.0208740234375,0.0001220703125,0.98876953125
1719126040.701,312,307,311,310,311,312,311,311,311,311,311,311,311,310,311,312,310,311,312,311,311,311,311,310,311,313,313,313,312,311,311,310,310,310,311,-29.0,3.0,42.0,-0.1831054538488388,0.0,-0.30517578125,-0.0213623046875,0.000244140625,0.9884033203125
1719126040.711,310,311,311,311,311,310,312,311,312,311,313,311,310,311,311,312,311,310,311,312,311,311,311,311,311,312,311,311,313,312,310,342,291,310,310,-29.0,3.0,42.0,-0.1831054538488388,0.0,-0.30517578125,-0.0213623046875,0.000244140625,0.9884033203125
1719126040.722,310,311,310,311,310,311,311,312,312,311,311,311,312,311,311,311,311,311,312,311,310,311,313,310,311,311,311,312,311,312,310,310,310,310,310,-29.0,3.0,42.0,-0.1831054538488388,0.0,-0.30517578125,-0.0208740234375,-0.0010986328125,0.9873046875
1719126040.741,309,310,311,311,311,311,311,311,311,312,311,311,311,311,311,312,311,310,311,312,311,311,311,313,311,312,313,313,313,313,311,313,310,311,311,-29.0,3.0,42.0,-0.1831054538488388,0.0,-0.30517578125,-0.0201416015625,-0.0013427734375,0.98681640625
1719126040.751,298,311,312,310,311,312,311,311,311,311,312,311,311,311,311,311,311,304,312,311,312,310,302,308,311,295,307,313,300,299,310,310,310,301,310,-29.0,3.0,42.0,-0.1831054538488388,0.0,-0.30517578125,-0.02001953125,0.0001220703125,0.9874267578125
1719126040.762,311,311,311,311,310,311,300,311,310,304,304,302,304,312,311,311,311,311,311,311,310,311,311,311,311,312,312,312,313,312,310,309,311,311,311,-29.0,3.0,42.0,-0.1220703050494194,-0.0610351525247097,-0.3662109076976776,-0.0196533203125,0.0008544921875,0.9871826171875
1719126040.771,310,309,311,311,310,312,312,310,311,312,311,310,311,311,311,312,311,311,311,313,311,311,311,304,311,312,313,313,311,311,308,310,310,310,310,-29.0,3.0,42.0,-0.1220703050494194,-0.0610351525247097,-0.3662109076976776,-0.0198974609375,0.00048828125,0.98681640625
1719126040.781,310,310,311,310,310,310,311,313,311,311,311,311,311,311,309,311,311,312,311,311,311,311,311,311,312,312,312,312,311,311,310,310,310,308,310,-29.0,3.0,42.0,-0.1220703050494194,-0.0610351525247097,-0.3662109076976776,-0.0203857421875,-0.0008544921875,0.9873046875
1719126040.791,308,311,311,310,311,311,311,310,311,311,311,312,311,311,310,312,311,312,311,312,311,312,311,311,311,312,313,311,312,313,310,310,310,311,310,-27.0,2.0,39.0,-0.1220703050494194,-0.0610351525247097,-0.3662109076976776,-0.0203857421875,-0.0008544921875,0.9873046875
1719126040.801,310,310,310,311,310,311,311,311,312,311,310,311,310,312,313,311,312,311,311,311,311,313,312,311,310,311,313,313,312,311,310,310,310,310,311,-27.0,2.0,39.0,-0.1220703050494194,-0.0610351525247097,-0.3662109076976776,-0.019775390625,-0.00146484375,0.98828125
1719126040.812,311,310,310,311,311,311,311,311,313,312,311,311,310,311,312,311,311,311,310,311,312,310,310,311,311,313,315,313,311,313,300,311,310,309,310,-27.0,2.0,39.0,-0.1220703050494194,-0.1220703050494194,-0.30517578125,-0.019775390625,-0.0009765625,0.988037109375
1719126040.821,310,311,311,311,311,311,312,311,311,311,311,312,311,311,311,313,311,312,311,312,312,312,311,311,311,312,305,309,301,310,310,310,307,310,310,-27.0,2.0,39.0,-0.1220703050494194,-0.0610351525247097,-0.3662109076976776,-0.0198974609375,-0.001220703125,0.9873046875
1719126040.831,310,310,310,310,310,311,311,310,311,312,311,310,302,311,311,311,311,311,311,311,312,311,311,310,311,312,313,311,312,311,310,310,309,310,310,-27.0,2.0,39.0,-0.1831054538488388,0.0,-0.3662109076976776,-0.0198974609375,-0.00146484375,0.9873046875
1719126040.841,310,311,310,310,311,311,311,311,312,311,311,311,308,311,312,311,311,311,312,311,310,312,312,311,312,312,312,313,313,311,309,310,310,310,310,-27.0,2.0,39.0,-0.1831054538488388,0.0,-0.3662109076976776,-0.01953125,-0.0009765625,0.9881591796875
1719126040.851,310,311,311,310,310,310,310,312,311,311,310,311,311,310,311,311,311,311,311,310,311,311,311,311,311,312,312,312,312,311,310,310,311,310,311,-27.0,2.0,39.0,-0.1831054538488388,0.0,-0.3662109076976776,-0.019775390625,-0.000732421875,0.988525390625
1719126040.861,310,310,310,310,311,311,312,311,311,311,311,311,311,311,311,311,311,311,311,311,311,310,313,311,310,313,311,311,312,313,302,308,311,309,310,-27.0,2.0,39.0,-0.1831054538488388,0.0,-0.3662109076976776,-0.0206298828125,-0.0009765625,0.9884033203125
1719126040.871,310,310,311,310,311,310,311,311,313,312,311,311,310,311,311,311,312,311,313,311,311,311,311,311,312,312,311,312,312,312,310,311,310,310,308,-27.0,2.0,39.0,-0.1831054538488388,0.0,-0.3662109076976776,-0.0206298828125,-0.0006103515625,0.9881591796875
1719126040.881,309,310,311,311,311,311,311,313,311,312,311,310,311,311,310,311,312,311,310,311,311,311,311,311,311,313,313,312,312,313,310,310,310,310,310,-27.0,2.0,39.0,-0.1220703050494194,0.0,-0.3662109076976776,-0.0206298828125,-0.0006103515625,0.9881591796875
1719126040.891,310,310,310,310,310,311,311,311,313,311,310,313,310,311,312,311,311,313,311,311,311,311,302,312,312,312,311,313,312,311,310,310,310,310,310,-26.0,5.0,41.0,-0.1220703050494194,0.0,-0.3662109076976776,-0.0201416015625,-0.000732421875,0.98779296875
1719126040.901,310,310,310,311,311,310,312,310,311,311,311,311,312,311,310,312,311,312,312,312,310,311,311,311,311,311,312,313,312,313,310,310,310,310,310,-26.0,5.0,41.0,-0.1220703050494194,0.0,-0.3662109076976776,-0.02001953125,-0.00048828125,0.986572265625
1719126040.921,309,311,310,310,310,311,311,312,312,311,310,311,311,311,312,311,311,313,311,311,311,312,311,312,311,311,311,313,312,313,287,309,310,310,310,-26.0,5.0,41.0,-0.1831054538488388,0.0,-0.3662109076976776,-0.0206298828125,-0.000732421875,0.9876708984375
1719126040.931,311,310,310,310,310,310,311,311,311,312,311,311,311,310,311,312,312,310,311,310,311,311,311,311,311,313,311,311,311,312,310,310,310,309,304,-26.0,5.0,41.0,-0.1831054538488388,0.0,-0.3662109076976776,-0.019775390625,-0.00048828125,0.9881591796875
1719126040.941,310,310,311,311,310,311,312,310,311,312,311,306,311,313,312,304,304,304,302,311,300,308,307,304,311,311,312,313,313,313,302,310,310,310,310,-26.0,5.0,41.0,-0.1831054538488388,0.0,-0.3662109076976776,-0.019775390625,-0.0003662109375,0.988037109375
1719126040.952,310,310,311,311,311,311,311,311,312,311,313,311,311,310,300,312,301,311,313,312,304,310,298,310,311,313,313,312,312,312,310,310,310,311,304,-26.0,5.0,41.0,-0.1220703050494194,-0.0610351525247097,-0.3662109076976776,-0.020751953125,-0.000244140625,0.9879150390625
1719126040.962,310,306,299,300,311,311,311,311,311,312,310,311,310,311,311,310,311,311,310,310,313,311,311,311,312,311,312,312,312,311,311,310,310,309,304,-26.0,5.0,41.0,-0.1220703050494194,-0.0610351525247097,-0.3662109076976776,-0.021240234375,0.0001220703125,0.987548828125
1719126040.971,310,310,310,310,300,310,311,311,311,311,311,311,310,311,311,311,311,311,311,310,311,311,311,312,311,313,311,311,312,312,310,310,310,310,310,-26.0,5.0,41.0,-0.1220703050494194,-0.0610351525247097,-0.3662109076976776,-0.0205078125,-0.000244140625,0.9874267578125
1719126040.981,310,310,310,311,310,311,310,311,311,312,310,310,311,310,311,311,312,311,311,311,311,311,311,313,311,311,311,313,311,312,309,311,286,309,310,-26.0,5.0,41.0,-0.1220703050494194,-0.0610351525247097,-0.3662109076976776,-0.0205078125,-0.000244140625,0.9874267578125
1719126040.991,310,311,311,310,311,310,311,311,310,304,311,311,311,311,312,311,310,312,311,311,311,311,311,312,312,311,313,312,312,313,311,310,310,310,310,-26.0,4.0,43.0,-0.1831054538488388,0.0,-0.3662109076976776,-0.0201416015625,-0.0009765625,0.9881591796875
1719126041.002,310,310,311,311,312,311,311,311,311,310,311,311,311,311,310,310,311,312,312,313,311,312,312,311,312,311,312,313,312,313,310,310,310,310,310,-26.0,4.0,43.0,-0.1831054538488388,0.0,-0.3662109076976776,-0.0201416015625,-0.0009765625,0.9881591796875
1719126041.011,310,311,311,311,310,312,311,311,311,311,311,310,311,311,311,311,311,312,313,311,311,311,312,311,311,311,312,310,311,312,308,310,308,310,310,-26.0,4.0,43.0,-0.1831054538488388,0.0,-0.30517578125,-0.020263671875,-0.0001220703125,0.9891357421875
1719126041.022,311,301,308,306,311,304,311,311,312,312,311,311,312,312,311,311,312,311,311,304,292,299,307,310,311,312,311,313,312,311,311,310,304,310,310,-26.0,4.0,43.0,-0.1831054538488388,0.0,-0.30517578125,-0.02001953125,-0.0010986328125,0.9888916015625
1719126041.031,310,310,311,310,311,312,311,311,311,313,311,312,310,310,310,312,313,311,311,313,312,312,311,311,311,313,312,312,312,313,310,310,310,310,309,-26.0,4.0,43.0,-0.1831054538488388,-0.0610351525247097,-0.3662109076976776,-0.02001953125,-0.0010986328125,0.9888916015625
1719126041.041,309,302,311,310,311,311,311,311,311,311,311,311,311,311,311,308,311,311,311,312,311,310,312,311,311,312,311,312,312,312,310,311,310,315,300,-26.0,4.0,43.0,-0.1220703050494194,-0.0610351525247097,-0.3662109076976776,-0.0198974609375,-0.001220703125,0.98779296875
1719126041.051,300,310,300,302,302,313,313,311,300,304,313,300,300,311,311,311,312,311,312,311,311,313,313,311,312,312,311,312,312,312,310,311,310,309,310,-26.0,4.0,43.0,-0.1220703050494194,-0.0610351525247097,-0.3662109076976776,-0.0201416015625,0.0003662109375,0.9881591796875
1719126041.061,310,310,310,310,311,312,299,311,302,302,300,301,311,311,311,311,312,313,312,311,311,310,311,311,311,311,311,301,312,311,310,309,310,310,310,-26.0,4.0,43.0,-0.1220703050494194,0.0,-0.30517578125,-0.0201416015625,0.0003662109375,0.9881591796875
1719126041.071,310,310,310,311,310,310,311,311,311,311,312,311,311,311,312,312,310,310,311,312,311,312,312,311,311,311,311,311,311,312,310,310,309,310,310,-26.0,4.0,43.0,-0.1220703050494194,0.0,-0.30517578125,-0.019287109375,-0.0003662109375,0.9879150390625
1719126041.081,310,310,310,311,311,311,310,311,311,313,312,311,310,311,312,311,311,311,312,311,312,311,311,311,311,313,312,310,312,312,310,308,310,310,309,-26.0,4.0,43.0,-0.1831054538488388,0.0,-0.3662109076976776,-0.019775390625,-0.0006103515625,0.98779296875
1719126041.091,310,310,311,311,309,311,311,311,311,312,311,312,311,311,311,311,311,310,311,311,310,313,311,312,312,311,313,312,313,311,310,310,310,310,310,-28.0,3.0,36.0,-0.1831054538488388,0.0,-0.30517578125,-0.019775390625,-0.0006103515625,0.98779296875
1719126041.101,310,311,310,311,312,312,310,310,311,311,311,311,310,311,311,311,311,311,311,311,311,311,312,308,310,311,312,313,311,311,310,310,310,310,308,-28.0,3.0,36.0,-0.1831054538488388,0.0,-0.30517578125,-0.0205078125,-0.0009765625,0.988037109375
1719126041.111,310,310,310,311,310,311,311,311,313,311,312,311,311,312,311,311,311,311,311,311,311,311,312,311,312,311,312,311,312,311,310,310,311,311,310,-28.0,3.0,36.0,-0.1831054538488388,-0.0610351525247097,-0.30517578125,-0.0201416015625,-0.00048828125,0.988037109375
1719126041.121,310,311,311,311,309,311,311,311,311,311,312,311,310,311,311,310,310,312,311,311,311,312,311,310,312,311,312,313,313,311,308,310,310,310,300,-28.0,3.0,36.0,-0.2441406100988388,-0.0610351525247097,-0.3662109076976776,-0.0201416015625,-0.00048828125,0.988037109375
1719126041.131,310,310,311,310,310,312,311,311,310,312,311,311,311,312,311,310,310,311,311,311,312,311,311,312,311,313,311,312,312,311,310,308,310,310,310,-28.0,3.0,36.0,-0.2441406100988388,-0.0610351525247097,-0.3662109076976776,-0.0198974609375,-0.0001220703125,0.9886474609375
1719126041.141,310,311,302,311,311,311,311,310,310,311,311,310,311,311,311,311,311,310,308,302,311,311,311,311,311,311,311,312,311,313,310,310,311,310,301,-28.0,3.0,36.0,-0.1220703050494194,0.0,-0.3662109076976776,-0.020263671875,0.0,0.98828125
1719126041.151,310,310,311,311,312,312,311,310,312,311,311,311,302,312,302,309,311,299,301,300,300,312,302,298,299,312,313,306,311,313,310,310,308,310,311,-28.0,3.0,36.0,-0.1220703050494194,0.0,-0.30517578125,-0.0201416015625,-0.0003662109375,0.988037109375
1719126041.163,310,310,311,310,310,311,311,311,313,310,311,311,312,311,302,313,311,311,311,310,311,312,310,311,310,311,312,312,311,301,310,310,310,309,304,-28.0,3.0,36.0,-0.1220703050494194,0.0,-0.30517578125,-0.0196533203125,-0.0008544921875,0.9876708984375
1719126041.171,302,311,310,311,310,311,310,311,312,311,312,311,311,311,310,311,311,304,311,312,311,311,310,312,311,313,312,311,311,312,310,310,310,310,310,-28.0,3.0,36.0,-0.1831054538488388,0.0,-0.3662109076976776,-0.0191650390625,-0.0009765625,0.9876708984375
1719126041.181,310,311,311,310,311,311,311,312,311,311,311,311,310,311,311,311,311,313,311,311,304,311,311,312,310,313,313,313,312,311,310,310,309,310,310,-28.0,3.0,36.0,-0.1831054538488388,0.0,-0.3662109076976776,-0.0191650390625,-0.0009765625,0.9876708984375
1719126041.201,310,310,310,310,311,311,311,310,310,311,310,310,311,311,311,311,311,311,311,311,310,311,311,312,311,312,311,312,313,311,310,310,301,311,310,-27.0,2.0,38.0,-0.1831054538488388,0.0,-0.30517578125,-0.0191650390625,-0.00048828125,0.9869384765625
1719126041.211,309,310,311,311,310,310,311,310,311,311,310,311,311,311,311,312,311,311,310,311,311,311,312,311,311,311,312,311,311,312,308,310,310,310,311,-27.0,2.0,38.0,-0.1831054538488388,0.0,-0.3662109076976776,-0.0191650390625,-0.00048828125,0.9869384765625
1719126041.221,310,310,311,310,311,310,311,310,311,311,311,311,312,312,313,300,299,311,311,311,311,313,311,311,311,312,313,312,311,313,310,310,310,315,299,-27.0,2.0,38.0,-0.1831054538488388,0.0,-0.3662109076976776,-0.0196533203125,-0.000244140625,0.988037109375
1719126041.231,310,310,310,311,310,311,311,311,311,312,312,311,311,312,312,312,312,312,311,312,312,311,311,311,312,312,312,313,311,313,306,310,311,311,310,-27.0,2.0,38.0,-0.1831054538488388,0.0,-0.30517578125,-0.0201416015625,0.0,0.9871826171875
1719126041.241,310,310,311,310,310,310,311,311,311,311,312,311,311,311,311,311,311,312,308,300,311,312,311,311,311,312,311,312,312,313,311,313,310,310,310,-27.0,2.0,38.0,-0.1831054538488388,0.0,-0.30517578125,-0.0201416015625,0.0,0.9871826171875
1719126041.251,310,310,310,311,312,312,310,311,311,313,311,311,311,311,310,311,311,301,300,302,312,311,299,315,312,300,297,313,313,313,310,310,310,319,311,-27.0,2.0,38.0,-0.1220703050494194,0.0,-0.30517578125,-0.0206298828125,0.0001220703125,0.9869384765625
1719126041.263,301,311,307,304,310,311,312,311,311,312,311,311,310,311,312,311,304,311,313,311,311,310,310,311,312,312,311,311,312,313,309,308,310,310,310,-27.0,2.0,38.0,-0.1220703050494194,0.0,-0.3662109076976776,-0.020751953125,-0.0001220703125,0.9879150390625
1719126041.272,311,310,309,310,310,311,311,311,312,311,312,313,310,311,311,311,311,312,313,312,311,311,313,310,311,311,313,312,312,313,311,322,311,310,310,-27.0,2.0,38.0,-0.1831054538488388,0.0,-0.3662109076976776,-0.020751953125,-0.0001220703125,0.9879150390625
1719126041.281,310,311,310,311,311,311,311,310,311,311,311,311,310,311,310,312,312,311,311,311,312,312,312,313,311,313,313,313,312,312,310,310,310,310,310,-27.0,2.0,38.0,-0.1831054538488388,0.0,-0.3662109076976776,-0.020751953125,-0.0009765625,0.9886474609375
1719126041.291,311,310,311,310,310,311,311,311,311,311,312,311,310,310,311,313,311,311,312,311,312,311,311,311,311,311,313,311,313,313,310,310,302,309,310,-26.0,4.0,37.0,-0.1220703050494194,0.0,-0.3662109076976776,-0.0203857421875,-0.000732421875,0.9876708984375
1719126041.301,310,311,311,310,310,310,312,311,312,312,311,311,311,311,311,311,312,311,311,312,311,313,310,310,311,311,311,311,311,312,311,310,299,312,311,-26.0,4.0,37.0,-0.1220703050494194,-0.0610351525247097,-0.30517578125,-0.0203857421875,-0.000732421875,0.9876708984375
1719126041.311,311,312,311,310,310,310,311,310,311,311,310,310,311,310,311,311,310,311,311,311,311,311,311,311,311,312,311,314,312,312,310,309,310,310,310,-26.0,4.0,37.0,-0.1220703050494194,-0.0610351525247097,-0.30517578125,-0.0198974609375,-0.0001220703125,0.9874267578125
1719126041.331,310,310,311,311,310,311,311,311,311,311,311,312,311,311,311,311,311,312,311,310,311,302,311,311,312,312,311,312,312,311,310,309,311,310,311,-26.0,4.0,37.0,-0.1220703050494194,-0.0610351525247097,-0.3662109076976776,-0.0198974609375,-0.000244140625,0.98779296875
1719126041.341,311,311,310,310,311,313,312,311,310,312,311,311,310,311,311,312,312,310,313,311,311,311,312,311,311,313,313,312,313,311,310,310,310,308,338,-26.0,4.0,37.0,-0.1220703050494194,-0.0610351525247097,-0.3662109076976776,-0.020751953125,-0.0008544921875,0.9874267578125
1719126041.351,310,310,310,311,310,311,311,311,311,311,311,312,311,311,311,311,311,312,311,311,311,311,311,312,311,313,311,311,312,311,310,310,311,310,310,-26.0,4.0,37.0,-0.1831054538488388,-0.0610351525247097,-0.3662109076976776,-0.0211181640625,-0.0008544921875,0.986572265625
1719126041.361,300,311,300,302,301,311,304,301,308,311,300,300,311,311,311,312,311,311,311,311,311,313,311,311,313,313,311,311,311,311,310,310,310,311,310,-26.0,4.0,37.0,-0.1831054538488388,0.0,-0.3662109076976776,-0.0208740234375,-0.0006103515625,0.9866943359375
1719126041.371,308,310,311,310,310,312,311,312,311,311,311,310,312,311,309,313,312,311,311,310,310,310,312,311,311,302,314,311,304,311,310,310,310,310,309,-26.0,4.0,37.0,-0.1831054538488388,0.0,-0.3662109076976776,-0.0208740234375,-0.00048828125,0.987060546875
1719126041.381,311,311,311,310,308,310,310,310,311,311,311,311,311,311,311,312,298,308,311,311,311,311,311,314,311,312,313,311,313,313,310,310,310,310,310,-26.0,4.0,37.0,-0.1220703050494194,-0.0610351525247097,-0.3662109076976776,-0.0211181640625,-0.0003662109375,0.987060546875
1719126041.391,310,310,310,310,311,311,311,311,312,311,311,311,312,311,310,311,311,313,312,311,311,310,311,311,311,313,311,313,312,313,310,304,310,309,310,-27.0,6.0,44.0,-0.1831054538488388,0.0,-0.3662109076976776,-0.0211181640625,-0.0003662109375,0.987060546875
1719126041.401,310,310,300,311,310,311,311,310,311,312,310,310,311,311,311,311,311,310,311,312,311,311,311,311,311,313,311,311,311,312,310,290,300,310,310,-27.0,6.0,44.0,-0.1831054538488388,0.0,-0.3662109076976776,-0.02099609375,-0.000244140625,0.9871826171875
1719126041.411,310,310,310,311,310,311,311,311,311,310,311,311,311,311,311,312,312,312,312,310,311,311,312,312,311,313,313,313,311,313,310,311,310,310,310,-27.0,6.0,44.0,-0.1831054538488388,0.0610351525247097,-0.3662109076976776,-0.020263671875,-0.0009765625,0.9881591796875
1719126041.421,309,310,311,310,311,310,311,310,310,311,312,312,311,311,310,311,312,311,311,311,312,311,312,312,311,311,313,311,312,313,310,310,310,309,309,-27.0,6.0,44.0,-0.1220703050494194,0.0,-0.30517578125,-0.020263671875,-0.0009765625,0.9881591796875
1719126041.431,310,310,311,311,311,311,311,311,312,311,311,309,311,311,312,313,311,311,311,312,311,312,313,313,313,312,313,313,312,312,310,310,310,310,310,-27.0,6.0,44.0,-0.1220703050494194,0.0,-0.30517578125,-0.0203857421875,-0.0009765625,0.9874267578125
1719126041.441,311,310,311,311,311,313,311,310,312,311,310,311,311,310,311,312,311,311,312,312,312,312,311,312,312,313,313,312,312,313,308,310,301,310,310,-27.0,6.0,44.0,-0.1220703050494194,0.0,-0.30517578125,-0.020751953125,-0.0009765625,0.986572265625
1719126041.451,310,311,311,311,310,311,311,311,311,311,312,311,311,311,311,311,311,311,311,312,311,311,309,311,311,311,313,312,312,313,310,310,312,310,310,-27.0,6.0,44.0,-0.1220703050494194,0.0,-0.30517578125,-0.020751953125,-0.0009765625,0.986572265625
1719126041.461,310,310,310,311,310,312,312,311,311,311,312,311,312,311,311,311,311,311,312,312,312,311,311,312,311,313,313,313,312,313,313,310,310,300,300,-27.0,6.0,44.0,-0.1220703050494194,0.0,-0.30517578125,-0.020751953125,-0.000732421875,0.9874267578125
1719126041.471,304,310,310,310,310,311,311,311,311,311,311,312,311,312,311,311,312,311,311,313,311,313,312,301,310,312,313,312,313,311,310,310,310,310,310,-27.0,6.0,44.0,-0.1220703050494194,0.0,-0.30517578125,-0.020263671875,-0.0003662109375,0.9884033203125
1719126041.481,310,311,310,310,310,311,311,311,304,308,309,311,312,312,311,310,311,311,311,311,311,311,311,311,304,311,311,311,312,313,310,310,310,308,310,-27.0,6.0,44.0,-0.1831054538488388,0.0,-0.30517578125,-0.020263671875,-0.0003662109375,0.9884033203125
1719126041.491,301,310,310,310,310,311,311,311,310,311,311,311,311,310,311,310,312,311,311,313,312,313,311,311,311,312,312,313,311,312,310,311,309,313,310,-26.0,5.0,36.0,-0.1831054538488388,0.0,-0.30517578125,-0.02001953125,-0.00048828125,0.9871826171875
1719126041.501,310,310,310,311,310,312,310,311,311,311,310,311,310,311,311,311,311,312,311,307,311,311,311,311,311,312,312,313,311,313,310,311,310,310,311,-26.0,5.0,36.0,-0.1831054538488388,0.0,-0.30517578125,-0.0203857421875,-0.000732421875,0.986083984375
1719126041.511,309,311,310,310,310,311,313,311,311,310,311,310,311,312,311,311,310,311,311,312,311,311,313,312,311,312,312,312,313,311,311,310,310,310,310,-26.0,5.0,36.0,-0.1220703050494194,-0.0610351525247097,-0.3662109076976776,-0.0203857421875,-0.000732421875,0.986083984375
1719126041.521,310,310,311,311,311,312,311,313,311,310,311,311,310,311,311,311,311,311,311,312,311,312,312,311,310,311,311,313,312,312,313,310,310,310,310,-26.0,5.0,36.0,-0.1220703050494194,-0.0610351525247097,-0.3662109076976776,-0.020751953125,-0.0009765625,0.9871826171875
1719126041.531,310,311,310,311,311,313,311,312,311,311,311,311,310,311,312,311,311,311,312,312,312,313,311,312,311,313,313,312,312,313,311,310,310,310,311,-26.0,5.0,36.0,-0.1220703050494194,-0.0610351525247097,-0.30517578125,-0.020263671875,-0.000732421875,0.9891357421875
1719126041.541,311,311,311,311,310,312,311,311,311,311,312,311,310,311,311,312,310,310,311,311,311,312,311,312,312,313,311,311,312,312,310,308,311,310,310,-26.0,5.0,36.0,-0.1220703050494194,0.0,-0.30517578125,-0.020263671875,-0.000732421875,0.9891357421875
1719126041.561,310,300,310,311,310,302,301,308,302,300,312,300,300,312,311,312,300,312,302,302,312,299,310,313,311,312,311,312,312,313,310,310,310,311,310,-26.0,5.0,36.0,-0.2441406100988388,-0.0610351525247097,-0.3662109076976776,-0.0198974609375,-0.0008544921875,0.987548828125
1719126041.573,310,310,310,310,310,312,313,312,311,310,311,311,311,311,312,311,311,311,311,311,313,312,313,310,311,312,311,312,312,313,310,310,310,310,310,-26.0,5.0,36.0,-0.2441406100988388,-0.0610351525247097,-0.3662109076976776,-0.02001953125,-0.00048828125,0.9879150390625
1719126041.581,310,310,311,310,310,311,311,311,310,311,311,311,310,311,312,312,311,311,304,311,310,311,311,311,311,313,312,311,311,311,308,310,310,310,310,-26.0,5.0,36.0,-0.2441406100988388,-0.0610351525247097,-0.3662109076976776,-0.0196533203125,-0.00048828125,0.988037109375
1719126041.591,310,310,310,310,311,311,311,310,311,311,310,311,311,310,311,313,311,311,311,311,313,312,311,310,312,311,312,312,312,313,310,309,310,310,310,-25.0,2.0,34.0,-0.1831054538488388,-0.0610351525247097,-0.3662109076976776,-0.0196533203125,-0.00048828125,0.988037109375
1719126041.601,310,311,311,311,310,311,311,311,311,311,311,311,311,311,311,311,311,311,311,311,311,311,311,311,310,312,312,311,311,311,311,310,310,310,309,-25.0,2.0,34.0,-0.1220703050494194,-0.0610351525247097,-0.3662109076976776,-0.019775390625,-0.000732421875,0.98779296875
1719126041.611,311,311,311,310,310,311,312,311,311,311,311,311,311,311,312,311,311,310,312,311,313,312,311,311,311,312,311,312,313,312,310,310,309,309,310,-25.0,2.0,34.0,-0.1220703050494194,-0.0610351525247097,-0.3662109076976776,-0.0198974609375,-0.0003662109375,0.9879150390625
1719126041.621,310,310,310,310,311,311,311,312,311,311,311,311,311,312,311,311,311,311,312,311,311,311,311,310,311,312,311,312,312,312,310,300,302,310,311,-25.0,2.0,34.0,-0.1220703050494194,-0.0610351525247097,-0.30517578125,-0.0198974609375,-0.000732421875,0.9874267578125
1719126041.631,310,310,311,311,310,311,310,311,311,311,311,310,311,310,311,311,311,311,312,311,311,306,300,310,311,313,311,311,311,311,311,310,310,310,310,-25.0,2.0,34.0,-0.1220703050494194,0.0,-0.30517578125,-0.0198974609375,-0.000732421875,0.9874267578125
1719126041.641,310,311,310,310,310,311,311,311,311,310,310,311,311,311,311,311,313,311,311,311,311,311,311,311,311,311,312,311,311,312,310,310,311,310,310,-25.0,2.0,34.0,-0.1220703050494194,0.0,-0.30517578125,-0.020751953125,0.0,0.9873046875
1719126041.661,310,310,310,310,311,311,310,310,311,311,310,311,310,312,311,312,310,311,310,315,309,311,312,311,312,300,311,311,312,304,299,301,275,300,301,-25.0,2.0,34.0,-0.1831054538488388,0.0,-0.3662109076976776,-0.0216064453125,-0.0008544921875,0.98876953125
1719126041.673,310,310,310,310,310,311,311,311,308,311,310,302,312,311,310,300,311,311,311,311,311,313,310,297,313,312,312,312,311,313,300,315,299,311,310,-25.0,2.0,34.0,-0.1831054538488388,0.0,-0.3662109076976776,-0.0208740234375,-0.0013427734375,0.9896240234375
1719126041.684,310,310,310,311,311,312,311,311,312,311,311,312,311,311,311,311,311,311,311,300,311,311,309,298,310,299,312,311,312,311,310,310,310,310,310,-25.0,2.0,34.0,-0.1831054538488388,0.0,-0.3662109076976776,-0.0206298828125,-0.001220703125,0.989013671875
1719126041.692,310,310,311,311,310,311,311,304,311,311,311,311,311,311,311,311,311,312,311,311,311,312,313,311,312,312,313,312,313,313,310,310,310,310,293,-27.0,3.0,40.0,-0.1831054538488388,0.0,-0.3662109076976776,-0.0206298828125,-0.001220703125,0.989013671875
1719126041.701,311,310,310,311,304,311,310,310,311,311,311,311,310,311,311,311,311,312,311,311,311,310,310,311,311,311,313,312,313,313,304,309,310,311,311,-27.0,3.0,40.0,-0.1831054538488388,0.0,-0.3662109076976776,-0.0213623046875,-0.0008544921875,0.988037109375
1719126041.711,310,311,311,310,311,311,310,311,311,311,311,311,311,311,311,311,313,311,313,310,311,311,311,311,311,313,311,312,312,312,310,310,310,310,311,-27.0,3.0,40.0,-0.1831054538488388,0.0,-0.3662109076976776,-0.0213623046875,-0.0008544921875,0.988037109375
1719126041.721,310,311,310,311,310,308,311,311,311,311,311,311,312,311,311,311,313,311,311,311,311,313,311,311,312,311,311,313,312,313,310,311,310,310,310,-27.0,3.0,40.0,-0.1831054538488388,0.0,-0.3662109076976776,-0.0211181640625,-0.0006103515625,0.988525390625
1719126041.742,310,311,310,312,310,311,311,311,311,311,312,311,311,310,311,312,311,312,311,310,311,311,311,310,311,311,312,312,312,312,310,309,310,312,310,-27.0,3.0,40.0,-0.1831054538488388,0.0,-0.3662109076976776,-0.019775390625,-0.0010986328125,0.9891357421875
1719126041.751,310,310,310,310,310,311,311,311,311,311,311,312,311,311,311,311,311,311,311,311,311,311,311,310,311,312,311,311,312,311,310,310,310,309,311,-27.0,3.0,40.0,-0.1831054538488388,0.0,-0.3662109076976776,-0.0196533203125,-0.0003662109375,0.988525390625
1719126041.771,310,299,310,310,311,304,307,311,312,311,311,311,311,311,311,311,313,312,311,308,313,311,311,311,310,298,311,304,314,311,302,299,310,311,298,-27.0,3.0,40.0,-0.1831054538488388,0.0,-0.30517578125,-0.0206298828125,-0.000732421875,0.988037109375
1719126041.783,309,310,311,311,311,311,311,311,311,312,310,302,312,310,311,311,311,311,312,313,311,312,311,310,312,313,312,313,311,311,310,310,309,317,310,-27.0,3.0,40.0,-0.1220703050494194,-0.0610351525247097,-0.30517578125,-0.0206298828125,-0.000732421875,0.988037109375
1719126041.791,310,310,310,310,310,311,311,311,311,311,311,311,312,311,310,311,312,311,311,311,311,312,311,313,311,312,312,312,312,312,311,310,310,310,310,-28.0,1.0,40.0,-0.1220703050494194,-0.0610351525247097,-0.30517578125,-0.020263671875,-0.001708984375,0.9879150390625
1719126041.801,310,310,311,310,311,311,311,310,311,311,311,311,313,311,311,311,311,311,311,309,312,311,311,311,311,313,312,312,311,311,310,310,310,310,286,-28.0,1.0,40.0,-0.1220703050494194,-0.0610351525247097,-0.3662109076976776,-0.020263671875,-0.001708984375,0.9879150390625
1719126041.812,310,310,311,310,310,311,311,311,313,311,311,310,311,312,311,310,311,311,312,312,311,311,311,313,311,311,312,313,312,312,310,310,310,310,310,-28.0,1.0,40.0,-0.1220703050494194,-0.0610351525247097,-0.3662109076976776,-0.0198974609375,-0.0013427734375,0.98779296875
1719126041.821,311,310,310,310,310,311,311,311,311,311,311,310,311,311,312,312,311,311,313,304,310,298,302,311,311,314,311,312,311,311,310,310,310,311,310,-28.0,1.0,40.0,-0.1831054538488388,-0.0610351525247097,-0.3662109076976776,-0.0198974609375,-0.0013427734375,0.987548828125
1719126041.831,309,311,310,310,311,310,311,311,300,311,310,310,311,311,311,310,311,312,312,311,312,311,311,311,311,311,311,313,313,304,301,310,312,310,311,-28.0,1.0,40.0,-0.1220703050494194,0.0610351525247097,-0.3662109076976776,-0.02001953125,-0.0001220703125,0.9881591796875
1719126041.841,310,310,311,310,310,311,311,311,311,310,314,311,311,311,311,311,311,310,313,311,312,311,311,311,312,310,312,312,311,302,311,308,310,299,311,-28.0,1.0,40.0,-0.1220703050494194,0.0610351525247097,-0.3662109076976776,-0.02001953125,-0.0001220703125,0.9881591796875
1719126041.851,310,310,311,310,310,312,310,311,311,310,311,311,311,311,312,312,311,311,312,311,312,310,312,311,312,313,313,313,312,312,310,310,299,309,310,-28.0,1.0,40.0,-0.1220703050494194,0.0610351525247097,-0.3662109076976776,-0.019775390625,-0.000244140625,0.9881591796875
1719126041.861,310,310,310,310,310,311,311,311,311,311,310,311,311,311,310,311,311,311,311,311,311,312,311,312,311,312,311,313,312,312,310,310,310,310,310,-28.0,1.0,40.0,-0.1831054538488388,-0.0610351525247097,-0.30517578125,-0.019775390625,-0.000244140625,0.9881591796875
1719126041.871,310,311,311,311,311,301,312,311,299,300,300,311,314,304,301,302,304,312,314,310,311,310,310,312,311,312,313,311,311,311,310,310,310,309,286,-28.0,1.0,40.0,-0.1831054538488388,-0.0610351525247097,-0.30517578125,-0.0196533203125,-0.00048828125,0.9881591796875
1719126041.882,310,310,311,310,311,311,311,311,311,311,310,311,312,311,311,311,311,311,311,311,311,311,311,311,311,313,311,313,313,312,310,310,310,310,310,-28.0,1.0,40.0,-0.1831054538488388,-0.0610351525247097,-0.30517578125,-0.02001953125,0.001220703125,0.9869384765625
1719126041.891,311,311,311,311,311,311,311,311,313,311,311,311,304,311,311,300,302,300,311,311,313,311,312,311,311,312,311,312,311,311,310,306,298,310,301,-28.0,5.0,40.0,-0.1831054538488388,0.0,-0.3662109076976776,-0.02001953125,0.001220703125,0.9869384765625
1719126041.902,310,311,309,310,310,311,310,313,311,311,311,311,310,311,312,312,311,311,310,311,313,312,311,311,311,312,313,311,313,313,310,310,309,309,310,-28.0,5.0,40.0,-0.1831054538488388,0.0,-0.3662109076976776,-0.020263671875,0.000244140625,0.98681640625
1719126041.911,299,310,310,310,310,311,311,311,311,311,311,311,311,311,311,311,311,311,311,312,312,311,311,312,311,312,313,313,313,313,310,310,310,311,310,-28.0,5.0,40.0,-0.1831054538488388,0.0,-0.3662109076976776,-0.019775390625,-0.000732421875,0.98828125
1719126041.921,310,302,310,311,311,311,311,311,311,311,310,311,311,311,312,311,304,308,310,311,311,311,311,312,311,312,313,311,312,313,310,310,310,299,310,-28.0,5.0,40.0,-0.1220703050494194,-0.0610351525247097,-0.30517578125,-0.020263671875,-0.000244140625,0.98779296875
1719126041.931,311,311,311,310,311,311,311,311,311,311,311,311,311,311,311,312,311,312,311,311,312,311,312,311,311,311,311,313,312,313,287,309,309,310,310,-28.0,5.0,40.0,-0.1220703050494194,-0.0610351525247097,-0.30517578125,-0.020263671875,-0.000244140625,0.98779296875
1719126041.941,310,310,312,310,310,312,311,311,311,311,311,311,313,311,312,313,313,311,312,311,312,311,311,312,311,312,312,313,311,311,310,310,310,310,310,-28.0,5.0,40.0,-0.1831054538488388,-0.0610351525247097,-0.30517578125,-0.021240234375,-0.0001220703125,0.9876708984375
1719126041.951,310,310,310,310,310,310,310,311,312,313,311,311,310,311,312,311,310,311,311,311,311,310,311,311,311,311,312,313,313,312,310,310,310,309,310,-28.0,5.0,40.0,-0.1831054538488388,0.0,-0.30517578125,-0.021240234375,-0.0001220703125,0.9876708984375
1719126041.961,310,311,310,311,311,312,310,311,311,312,311,311,310,311,311,311,311,312,310,311,311,311,311,311,311,312,312,313,313,311,310,310,310,310,311,-28.0,5.0,40.0,-0.1831054538488388,0.0,-0.30517578125,-0.0208740234375,-0.000244140625,0.9876708984375
1719126041.971,310,310,310,311,311,311,311,311,311,310,311,311,311,311,311,311,312,312,311,312,311,312,311,311,311,313,311,311,312,311,310,310,310,311,310,-28.0,5.0,40.0,-0.1831054538488388,-0.0610351525247097,-0.30517578125,-0.0206298828125,-0.00048828125,0.98779296875
1719126041.981,310,312,311,311,310,311,311,312,310,311,311,311,310,311,310,310,311,311,312,311,312,311,311,311,311,312,311,313,312,311,310,310,310,310,311,-28.0,5.0,40.0,-0.1831054538488388,-0.0610351525247097,-0.30517578125,-0.0206298828125,-0.00048828125,0.98779296875
1719126041.991,309,311,310,310,310,311,310,310,310,311,312,311,310,311,311,312,311,311,311,311,311,311,311,312,311,313,313,312,312,311,310,310,310,308,310,-26.0,2.0,36.0,-0.1831054538488388,-0.0610351525247097,-0.30517578125,-0.0203857421875,-0.000732421875,0.98779296875
1719126042.001,310,310,311,310,311,311,310,310,313,311,311,312,310,311,312,311,311,310,311,312,313,311,311,310,310,312,313,312,313,312,310,310,311,308,308,-26.0,2.0,36.0,-0.1831054538488388,-0.0610351525247097,-0.3662109076976776,-0.0194091796875,-0.0010986328125,0.9871826171875
1719126042.021,311,310,311,311,309,311,311,311,311,311,311,311,311,312,311,310,311,311,311,312,311,312,311,311,312,313,313,313,313,311,308,310,309,309,311,-26.0,2.0,36.0,-0.1831054538488388,0.0,-0.30517578125,-0.0201416015625,-0.000732421875,0.986572265625
1719126042.031,310,310,310,310,310,311,311,311,311,312,310,310,311,311,310,311,311,312,312,311,311,311,311,312,311,311,312,307,302,296,310,300,310,310,301,-26.0,2.0,36.0,-0.1831054538488388,0.0,-0.3662109076976776,-0.021240234375,-0.00048828125,0.986083984375
1719126042.042,310,311,311,304,310,311,311,311,311,310,311,311,311,311,311,311,311,311,310,311,312,311,298,310,312,312,311,312,312,312,310,313,309,310,310,-26.0,2.0,36.0,-0.1831054538488388,0.0,-0.30517578125,-0.021240234375,-0.00048828125,0.986083984375
1719126042.051,310,311,310,310,310,311,311,310,311,311,311,311,311,311,310,304,313,311,311,298,297,302,312,311,311,312,313,311,311,312,310,309,310,310,310,-26.0,2.0,36.0,-0.1831054538488388,0.0,-0.30517578125,-0.0211181640625,-0.000244140625,0.9873046875
1719126042.061,309,310,311,311,311,311,312,312,311,310,311,310,311,313,311,312,312,311,311,311,312,311,311,310,311,313,312,312,313,312,309,311,310,308,311,-26.0,2.0,36.0,-0.1831054538488388,-0.0610351525247097,-0.30517578125,-0.020751953125,-0.0003662109375,0.9879150390625
1719126042.071,311,311,308,300,300,300,311,313,311,311,311,312,311,311,311,311,311,311,312,311,311,311,311,311,310,313,311,311,311,312,311,310,310,309,310,-26.0,2.0,36.0,-0.1831054538488388,0.0,-0.3662109076976776,-0.0203857421875,-0.0009765625,0.9874267578125
1719126042.081,302,311,311,310,311,312,311,312,311,311,311,311,311,313,311,311,311,312,311,313,309,306,309,312,311,313,313,313,312,314,311,310,310,300,310,-26.0,2.0,36.0,-0.1831054538488388,0.0,-0.3662109076976776,-0.0206298828125,-0.0010986328125,0.9871826171875
1719126042.091,310,310,311,311,310,311,311,311,311,311,312,311,312,310,311,311,311,311,311,311,311,311,312,311,311,313,313,312,311,311,310,309,308,310,309,-28.0,7.0,40.0,-0.1831054538488388,0.0,-0.3662109076976776,-0.020263671875,-0.000732421875,0.9881591796875
1719126042.101,310,310,310,310,310,311,311,310,312,311,311,310,310,310,311,312,311,311,312,311,311,310,311,311,311,300,313,312,311,313,310,310,310,310,309,-28.0,7.0,40.0,-0.1220703050494194,0.0,-0.3662109076976776,-0.020263671875,-0.000732421875,0.9881591796875
1719126042.111,310,311,310,311,311,310,311,311,310,311,311,311,311,311,311,311,311,311,311,310,311,311,311,313,310,311,312,312,312,313,300,311,310,310,310,-28.0,7.0,40.0,-0.1220703050494194,0.0,-0.3662109076976776,-0.0205078125,-0.0003662109375,0.988037109375
1719126042.121,310,310,311,311,310,311,311,310,310,313,311,311,311,310,311,311,312,311,311,311,311,311,311,311,311,312,311,311,313,312,310,310,309,310,310,-28.0,7.0,40.0,-0.1831054538488388,0.0,-0.3662109076976776,-0.0206298828125,-0.000244140625,0.987548828125
1719126042.131,310,311,310,310,310,311,311,311,311,311,311,311,311,311,311,313,311,311,311,312,311,312,310,311,311,311,312,312,311,312,310,310,310,310,314,-28.0,7.0,40.0,-0.1831054538488388,0.0,-0.3662109076976776,-0.0208740234375,-0.000732421875,0.9874267578125
1719126042.141,310,310,310,311,310,299,300,304,311,311,311,310,310,310,311,312,311,311,311,312,311,311,311,311,311,313,312,312,313,311,310,310,310,310,310,-28.0,7.0,40.0,-0.1831054538488388,0.0,-0.3662109076976776,-0.0211181640625,-0.000732421875,0.9881591796875
1719126042.151,310,311,311,310,311,311,311,311,311,311,311,311,311,309,311,311,311,311,313,312,311,312,311,311,312,313,312,312,312,302,310,310,310,310,310,-28.0,7.0,40.0,-0.1831054538488388,0.0,-0.3662109076976776,-0.0211181640625,-0.0006103515625,0.988525390625
1719126042.161,311,310,310,311,310,311,311,311,311,312,311,311,311,311,310,311,311,311,311,311,311,311,311,311,311,313,313,313,311,313,310,310,310,311,310,-28.0,7.0,40.0,-0.1831054538488388,0.0,-0.30517578125,-0.0208740234375,-0.0009765625,0.9881591796875
1719126042.171,308,310,311,310,311,310,311,311,310,311,311,311,311,311,312,311,311,310,312,311,308,311,300,313,299,312,312,298,299,307,300,310,311,310,310,-28.0,7.0,40.0,-0.1831054538488388,0.0,-0.30517578125,-0.0206298828125,-0.00048828125,0.988037109375
1719126042.181,310,308,310,312,311,313,311,310,312,312,313,311,312,299,301,302,302,316,310,311,311,311,311,310,311,313,312,313,311,312,310,310,310,300,311,-28.0,7.0,40.0,-0.1220703050494194,0.0,-0.2441406100988388,-0.0208740234375,-0.00048828125,0.9869384765625
1719126042.191,310,310,310,310,311,311,311,312,313,310,311,310,299,312,311,313,312,311,311,311,312,311,311,312,311,312,312,302,313,312,302,299,300,311,310,-25.0,3.0,42.0,-0.1831054538488388,0.0,-0.30517578125,-0.0208740234375,-0.00048828125,0.9869384765625
1719126042.201,311,310,300,311,310,299,300,301,302,311,311,310,310,311,312,312,313,311,312,311,311,311,310,311,311,313,313,312,313,312,310,310,309,310,310,-25.0,3.0,42.0,-0.1831054538488388,0.0,-0.30517578125,-0.0205078125,-0.00048828125,0.9873046875
1719126042.212,310,311,311,310,311,311,311,310,311,311,311,311,310,311,311,311,312,311,313,311,311,311,310,312,311,312,311,313,312,312,310,310,313,310,310,-25.0,3.0,42.0,-0.2441406100988388,0.0,-0.30517578125,-0.0198974609375,-0.0008544921875,0.9876708984375
1719126042.221,310,310,311,310,310,311,311,311,311,311,311,312,311,311,311,311,312,311,311,311,311,313,312,311,311,310,312,311,311,312,310,310,310,310,310,-25.0,3.0,42.0,-0.1831054538488388,0.0,-0.30517578125,-0.0201416015625,-0.0006103515625,0.988037109375
1719126042.231,310,310,311,311,310,312,311,311,311,311,311,311,311,311,313,311,312,311,311,312,311,311,311,311,312,311,313,313,313,312,310,310,310,310,309,-25.0,3.0,42.0,-0.1831054538488388,0.0,-0.30517578125,-0.020751953125,0.0001220703125,0.988037109375
1719126042.241,309,311,311,311,310,310,311,311,311,311,311,305,304,302,300,312,305,311,313,304,313,311,311,313,311,312,313,312,313,312,312,310,310,311,310,-25.0,3.0,42.0,-0.1831054538488388,0.0,-0.3662109076976776,-0.0213623046875,-0.0003662109375,0.9884033203125
1719126042.251,311,315,311,311,310,313,311,311,312,312,311,311,312,312,311,311,311,310,313,313,311,311,310,312,312,312,311,311,313,312,310,301,304,310,310,-25.0,3.0,42.0,-0.1220703050494194,0.0,-0.3662109076976776,-0.0213623046875,-0.0003662109375,0.9884033203125
1719126042.261,310,311,311,311,311,311,312,311,311,311,308,311,311,311,310,312,313,311,311,311,311,311,311,311,311,313,302,311,312,312,311,310,310,308,310,-25.0,3.0,42.0,-0.1220703050494194,0.0,-0.3662109076976776,-0.02099609375,-0.000732421875,0.9884033203125
1719126042.271,310,311,311,311,310,310,312,311,310,311,308,310,311,311,311,311,311,310,311,312,310,311,311,311,311,313,311,313,311,311,310,310,310,309,310,-25.0,3.0,42.0,-0.1220703050494194,-0.0610351525247097,-0.3662109076976776,-0.0203857421875,-0.0009765625,0.9874267578125
1719126042.281,311,300,300,311,310,311,310,312,311,312,311,311,310,311,311,311,311,313,312,310,311,311,312,311,310,312,311,312,311,313,310,310,310,310,287,-25.0,3.0,42.0,-0.1831054538488388,-0.0610351525247097,-0.3662109076976776,-0.0203857421875,-0.0009765625,0.9874267578125
1719126042.291,304,300,311,311,311,311,311,299,310,311,311,310,311,311,311,310,311,302,312,308,299,309,311,311,310,312,311,311,312,313,310,310,310,310,310,-27.0,4.0,53.0,-0.1831054538488388,-0.0610351525247097,-0.3662109076976776,-0.0196533203125,-0.0006103515625,0.9871826171875
1719126042.301,310,300,310,311,310,312,311,311,311,312,311,310,313,312,311,311,312,311,312,311,311,311,311,311,312,313,312,312,311,313,309,310,310,311,310,-27.0,4.0,53.0,-0.1831054538488388,-0.0610351525247097,-0.3662109076976776,-0.0189208984375,0.0,0.9871826171875
1719126042.311,310,310,311,310,311,311,311,311,312,312,312,311,310,311,311,312,313,311,311,311,312,311,311,311,308,313,312,311,313,312,310,310,310,310,310,-27.0,4.0,53.0,-0.1831054538488388,-0.0610351525247097,-0.3662109076976776,-0.0189208984375,0.0,0.9871826171875
1719126042.321,310,311,311,310,311,312,311,311,310,312,312,311,312,311,311,312,310,311,311,311,310,311,312,311,311,312,311,312,313,312,310,311,310,310,310,-27.0,4.0,53.0,-0.1220703050494194,-0.0610351525247097,-0.3662109076976776,-0.019287109375,0.0003662109375,0.9876708984375
1719126042.331,310,311,311,310,310,311,310,312,311,310,310,311,312,311,311,311,311,312,312,311,311,311,311,311,310,311,312,312,313,311,308,310,310,310,310,-27.0,4.0,53.0,-0.1220703050494194,-0.0610351525247097,-0.3662109076976776,-0.01953125,-0.0008544921875,0.988037109375
1719126042.341,310,310,310,311,310,311,311,311,311,311,311,310,313,311,313,311,311,311,311,311,311,311,311,313,312,311,314,313,313,312,310,310,310,309,310,-27.0,4.0,53.0,-0.1831054538488388,0.0,-0.3662109076976776,-0.01953125,-0.0008544921875,0.988037109375
1719126042.351,310,310,311,311,311,310,313,311,311,311,310,301,302,304,313,311,311,311,311,312,311,311,311,311,311,313,312,311,313,304,310,310,310,310,309,-27.0,4.0,53.0,-0.1831054538488388,0.0,-0.3662109076976776,-0.019287109375,-0.0010986328125,0.9884033203125
1719126042.361,311,310,310,310,311,311,311,310,311,311,311,312,311,311,311,311,311,309,311,312,311,311,311,311,310,312,311,313,313,313,310,310,310,310,310,-27.0,4.0,53.0,-0.1831054538488388,0.0,-0.3662109076976776,-0.0196533203125,-0.0008544921875,0.9879150390625
1719126042.371,311,311,310,311,311,311,310,310,311,311,310,311,304,302,311,312,311,311,311,313,313,311,311,312,311,313,312,311,311,313,310,301,310,310,310,-27.0,4.0,53.0,-0.1831054538488388,0.0,-0.3662109076976776,-0.020263671875,-0.0001220703125,0.987060546875
1719126042.381,311,310,311,311,310,311,311,311,313,312,311,311,311,311,312,311,311,311,312,310,311,312,311,311,311,312,313,312,311,313,310,309,310,310,310,-27.0,4.0,53.0,-0.1831054538488388,0.0,-0.3662109076976776,-0.020751953125,0.0,0.9873046875
1719126042.391,310,311,310,311,311,311,312,311,310,311,312,311,310,311,311,313,311,312,310,302,311,310,310,312,312,302,313,313,312,311,311,311,272,310,310,-27.0,3.0,39.0,-0.1831054538488388,0.0,-0.3662109076976776,-0.019775390625,-0.0009765625,0.98779296875
1719126042.401,310,310,311,310,302,311,312,311,311,310,311,311,311,310,312,311,312,313,312,313,311,313,312,311,311,311,314,311,312,312,310,310,310,310,310,-27.0,3.0,39.0,-0.1831054538488388,0.0,-0.3662109076976776,-0.019775390625,-0.0009765625,0.98779296875
1719126042.411,310,311,311,310,311,311,311,313,311,311,312,312,310,313,311,312,312,312,311,311,313,311,311,311,313,312,313,311,313,313,311,310,311,312,310,-27.0,3.0,39.0,-0.1831054538488388,-0.0610351525247097,-0.3662109076976776,-0.019287109375,-0.0006103515625,0.9879150390625
1719126042.421,310,311,311,310,311,312,312,312,311,311,311,313,310,311,311,311,311,313,313,311,312,312,311,312,311,298,313,311,312,302,299,300,311,311,310,-27.0,3.0,39.0,-0.1831054538488388,-0.0610351525247097,-0.3662109076976776,-0.0206298828125,-0.0009765625,0.9884033203125
1719126042.431,310,311,304,310,310,312,311,313,310,312,311,311,312,311,311,311,306,311,313,311,311,313,312,311,311,311,313,312,313,312,310,309,310,310,300,-27.0,3.0,39.0,-0.1831054538488388,0.0,-0.30517578125,-0.0206298828125,-0.0009765625,0.9884033203125
1719126042.441,310,311,311,311,311,310,312,311,311,311,311,311,311,311,310,307,307,300,309,314,313,312,312,311,312,312,313,313,312,312,310,310,310,311,310,-27.0,3.0,39.0,-0.1831054538488388,0.0,-0.30517578125,-0.0208740234375,-0.0008544921875,0.98876953125
1719126042.461,311,311,310,310,310,311,312,312,312,311,311,311,311,311,311,311,304,302,312,311,311,312,311,312,312,313,312,311,312,313,310,310,310,311,309,-27.0,3.0,39.0,-0.1220703050494194,0.0610351525247097,-0.3662109076976776,-0.0216064453125,0.0003662109375,0.9873046875
1719126042.472,310,311,311,310,309,311,311,311,310,311,311,302,311,311,311,311,311,312,311,311,311,311,311,312,311,302,312,311,311,311,310,311,310,307,310,-27.0,3.0,39.0,-0.1220703050494194,0.0,-0.3662109076976776,-0.0208740234375,0.0003662109375,0.98779296875
1719126042.495,310,310,310,310,311,312,311,310,312,311,311,311,310,311,311,313,311,310,312,311,311,311,310,312,311,312,312,312,314,311,310,310,310,311,310,-26.0,5.0,41.0,-0.1831054538488388,-0.0610351525247097,-0.3662109076976776,-0.02001953125,-0.0010986328125,0.988037109375
1719126042.502,299,311,310,311,310,312,311,312,311,311,311,311,310,310,311,302,310,310,300,302,311,311,311,311,311,311,311,311,312,311,310,310,309,310,310,-26.0,5.0,41.0,-0.1831054538488388,-0.0610351525247097,-0.3662109076976776,-0.02001953125,-0.0010986328125,0.988037109375
1719126042.511,310,311,310,311,310,310,311,307,304,310,311,310,311,311,311,310,311,311,311,311,311,310,312,310,311,312,311,311,311,311,309,310,310,310,310,-26.0,5.0,41.0,-0.1831054538488388,-0.0610351525247097,-0.3662109076976776,-0.020263671875,-0.0013427734375,0.988525390625
1719126042.521,310,310,310,310,311,311,311,311,311,311,311,311,310,311,311,312,311,311,311,311,311,312,311,311,311,313,314,311,311,313,309,310,310,309,310,-26.0,5.0,41.0,-0.1831054538488388,-0.0610351525247097,-0.3662109076976776,-0.0206298828125,-0.0006103515625,0.988525390625
1719126042.531,310,310,310,311,311,311,312,310,312,311,311,310,311,311,311,311,311,312,311,310,312,311,311,310,311,312,313,312,313,313,310,309,310,311,310,-26.0,5.0,41.0,-0.1831054538488388,-0.0610351525247097,-0.3662109076976776,-0.0203857421875,0.0003662109375,0.98779296875
1719126042.541,310,311,310,310,310,312,310,311,311,311,310,311,311,311,311,311,312,311,311,311,311,312,311,311,311,311,312,312,311,310,310,310,310,310,342,-26.0,5.0,41.0,-0.1831054538488388,0.0,-0.30517578125,-0.01953125,0.0003662109375,0.987548828125
1719126042.551,310,310,310,310,311,312,310,312,311,301,302,310,304,311,310,312,312,312,310,310,311,311,311,311,311,311,313,312,312,312,310,310,309,310,310,-26.0,5.0,41.0,-0.1831054538488388,0.0,-0.3662109076976776,-0.018798828125,-0.0001220703125,0.9881591796875
1719126042.571,310,310,310,310,310,310,311,310,311,311,311,311,311,311,310,311,311,310,311,311,311,311,311,312,311,312,311,311,311,312,310,309,304,310,310,-26.0,5.0,41.0,-0.1831054538488388,0.0,-0.3662109076976776,-0.019775390625,0.000244140625,0.9886474609375
1719126042.581,311,309,310,311,311,310,311,312,311,311,310,311,311,312,310,310,311,302,313,299,311,298,307,309,311,298,311,298,299,299,300,299,298,311,302,-26.0,5.0,41.0,-0.1220703050494194,0.0,-0.3662109076976776,-0.0203857421875,0.00048828125,0.988037109375
1719126042.592,310,311,310,300,311,300,300,311,310,311,311,311,311,311,311,311,311,310,311,312,312,311,311,311,310,312,313,313,312,311,310,309,310,310,310,-25.0,5.0,49.0,-0.1220703050494194,0.0,-0.3662109076976776,-0.0203857421875,-0.0003662109375,0.9879150390625
1719126042.601,310,310,310,309,312,312,311,300,311,311,300,302,311,311,311,311,311,312,311,311,311,311,311,311,311,313,313,313,312,312,309,310,312,310,310,-25.0,5.0,49.0,-0.1220703050494194,0.0,-0.4272460639476776,-0.020263671875,-0.0009765625,0.9888916015625
1719126042.611,309,311,311,311,310,310,311,311,311,311,311,311,311,311,310,312,312,312,311,311,311,312,311,311,311,311,311,311,311,312,311,310,311,310,310,-25.0,5.0,49.0,-0.1220703050494194,-0.0610351525247097,-0.4272460639476776,-0.0198974609375,-0.000732421875,0.989501953125
1719126042.621,310,310,310,310,311,311,311,311,311,312,311,311,311,310,311,313,311,311,310,311,311,311,311,311,311,313,311,311,311,313,310,310,310,311,311,-25.0,5.0,49.0,-0.1831054538488388,-0.0610351525247097,-0.3662109076976776,-0.0203857421875,-0.00048828125,0.989501953125
1719126042.631,310,310,311,311,310,310,311,311,311,311,312,311,312,311,311,311,312,311,312,311,311,310,311,311,311,313,310,313,313,312,310,310,308,310,310,-25.0,5.0,49.0,-0.1831054538488388,-0.0610351525247097,-0.3662109076976776,-0.021240234375,-0.00048828125,0.9892578125
1719126042.641,309,310,310,311,310,311,311,311,311,311,311,311,311,310,310,311,312,310,311,311,310,310,311,312,311,311,311,311,312,311,310,310,310,310,310,-25.0,5.0,49.0,-0.1831054538488388,0.0,-0.30517578125,-0.020751953125,-0.000244140625,0.9892578125
1719126042.651,311,310,310,310,310,311,311,311,311,311,311,311,311,313,311,311,312,312,302,312,310,311,312,311,311,313,312,312,314,312,310,310,310,310,310,-25.0,5.0,49.0,-0.1220703050494194,0.0,-0.30517578125,-0.0203857421875,-0.0001220703125,0.9893798828125
1719126042.661,308,310,311,311,310,311,311,311,311,311,311,311,312,311,311,311,310,311,311,311,311,312,311,311,311,312,312,313,311,312,309,310,310,310,310,-25.0,5.0,49.0,-0.1831054538488388,0.0,-0.3662109076976776,-0.0211181640625,-0.0003662109375,0.9886474609375
1719126042.671,310,310,310,311,311,312,311,311,312,311,310,311,312,311,311,310,311,311,312,311,311,313,311,312,311,311,311,313,312,313,311,310,310,310,311,-25.0,5.0,49.0,-0.1831054538488388,0.0,-0.3662109076976776,-0.0213623046875,-0.000244140625,0.988525390625
1719126042.691,302,311,311,311,311,311,312,311,300,304,304,300,300,311,311,311,313,312,299,304,298,310,300,301,312,312,311,311,311,312,310,311,311,310,311,-27.0,2.0,62.0,-0.2441406100988388,0.0,-0.30517578125,-0.02001953125,-0.000732421875,0.987548828125
1719126042.703,310,311,310,311,311,311,311,311,311,311,311,311,310,311,311,310,311,311,310,312,310,312,312,311,311,312,313,311,311,313,310,310,310,310,311,-27.0,2.0,62.0,-0.1831054538488388,0.0,-0.30517578125,-0.02001953125,-0.000732421875,0.987548828125
1719126042.711,310,311,310,311,310,315,310,311,311,311,311,311,311,311,312,311,311,312,311,312,312,311,311,311,311,312,313,312,313,312,310,311,310,310,309,-27.0,2.0,62.0,-0.1831054538488388,0.0,-0.30517578125,-0.0196533203125,-0.0008544921875,0.98779296875
1719126042.721,310,311,310,311,310,312,312,311,311,310,311,311,312,311,311,311,311,311,311,311,311,311,311,311,311,312,311,312,312,312,310,309,310,310,310,-27.0,2.0,62.0,-0.1831054538488388,0.0,-0.3662109076976776,-0.0196533203125,-0.0008544921875,0.98779296875
1719126042.731,309,310,311,310,310,311,311,311,312,311,310,312,311,311,310,310,312,311,310,311,310,311,311,311,311,312,311,312,313,312,310,310,310,310,309,-27.0,2.0,62.0,-0.1220703050494194,0.0,-0.3662109076976776,-0.02001953125,-0.0013427734375,0.98779296875
1719126042.741,310,310,310,311,310,311,304,311,311,310,311,311,311,311,311,311,311,310,311,311,311,310,311,311,311,312,312,311,311,313,308,272,309,310,310,-27.0,2.0,62.0,-0.1220703050494194,0.0,-0.3662109076976776,-0.0206298828125,-0.00146484375,0.988037109375
1719126042.751,310,310,310,311,311,311,311,311,312,311,311,311,310,310,311,311,311,312,310,311,311,311,312,312,310,311,312,312,311,311,310,310,310,310,311,-27.0,2.0,62.0,-0.1220703050494194,0.0,-0.3662109076976776,-0.0205078125,-0.000732421875,0.9881591796875
1719126042.761,310,310,310,310,304,302,306,304,310,311,311,311,310,311,311,312,312,311,311,312,313,312,311,311,311,313,313,313,312,313,310,311,310,310,310,-27.0,2.0,62.0,-0.1831054538488388,0.0,-0.3662109076976776,-0.0198974609375,-0.0003662109375,0.9881591796875
1719126042.781,310,310,311,310,310,311,311,312,311,311,313,310,311,311,311,311,310,311,311,312,312,312,311,310,311,312,311,312,313,311,309,310,310,309,310,-27.0,2.0,62.0,-0.1831054538488388,0.0,-0.3662109076976776,-0.0196533203125,-0.0008544921875,0.9874267578125
1719126042.791,310,311,311,311,311,311,312,312,311,311,302,302,309,311,313,311,313,312,311,300,310,299,304,311,299,300,309,299,312,313,310,310,310,310,310,-27.0,3.0,52.0,-0.1220703050494194,-0.0610351525247097,-0.3662109076976776,-0.0201416015625,-0.001220703125,0.987060546875
1719126042.801,299,311,300,302,311,304,312,312,311,311,311,310,311,311,312,312,313,311,312,311,312,311,311,311,310,313,312,311,312,312,310,310,310,310,310,-27.0,3.0,52.0,-0.1220703050494194,-0.0610351525247097,-0.3662109076976776,-0.0201416015625,-0.00146484375,0.9873046875
1719126042.811,310,311,310,310,311,311,311,311,312,313,311,311,312,312,311,311,311,311,312,313,311,311,312,304,300,312,311,311,313,312,311,310,310,310,310,-27.0,3.0,52.0,-0.1831054538488388,-0.0610351525247097,-0.4272460639476776,-0.0201416015625,-0.0015869140625,0.9876708984375
1719126042.821,310,310,310,310,311,311,311,311,312,311,312,311,311,311,311,312,311,312,313,310,312,312,312,311,311,312,312,313,311,311,310,310,310,310,310,-27.0,3.0,52.0,-0.1831054538488388,-0.0610351525247097,-0.3662109076976776,-0.0201416015625,-0.001708984375,0.9876708984375
1719126042.831,310,311,311,310,310,311,311,311,311,312,311,311,311,312,311,312,311,311,312,310,310,312,311,311,310,311,311,312,311,312,310,343,310,310,309,-27.0,3.0,52.0,-0.1831054538488388,0.0,-0.30517578125,-0.020263671875,-0.00146484375,0.9876708984375
1719126042.841,311,311,311,311,310,311,311,310,311,311,311,311,311,312,311,311,311,312,313,313,312,311,311,311,311,311,313,312,311,312,310,310,310,310,310,-27.0,3.0,52.0,-0.1220703050494194,0.0,-0.30517578125,-0.0206298828125,-0.0009765625,0.9873046875
1719126042.851,310,311,310,310,310,310,310,311,311,311,312,311,311,311,311,311,311,312,311,312,311,311,311,312,311,313,311,312,312,312,310,316,310,311,310,-27.0,3.0,52.0,-0.1220703050494194,0.0,-0.30517578125,-0.0208740234375,-0.0006103515625,0.9866943359375
1719126042.881,311,310,310,310,310,310,311,311,311,312,312,311,310,311,311,312,310,311,311,313,311,311,312,311,311,312,313,311,313,312,310,309,310,310,310,-27.0,3.0,52.0,-0.1831054538488388,-0.0610351525247097,-0.30517578125,-0.0196533203125,-0.0006103515625,0.9866943359375
1719126042.891,302,299,311,311,310,311,311,311,312,311,311,311,310,311,311,311,311,311,312,311,311,311,300,311,311,308,310,299,313,313,310,310,310,311,302,-28.0,3.0,41.0,-0.1831054538488388,-0.0610351525247097,-0.30517578125,-0.0201416015625,-0.001220703125,0.9873046875
1719126042.902,310,310,311,310,310,311,311,311,311,311,311,312,311,311,310,311,313,312,311,311,298,313,326,311,313,299,313,313,312,312,310,310,310,310,310,-28.0,3.0,41.0,-0.1220703050494194,0.0,-0.30517578125,-0.0211181640625,-0.000732421875,0.9881591796875
1719126042.912,310,310,310,311,311,311,311,311,311,311,311,299,311,304,310,311,311,304,302,299,304,313,311,311,311,311,312,313,312,312,310,310,310,310,310,-28.0,3.0,41.0,-0.1220703050494194,0.0,-0.30517578125,-0.021484375,-0.0003662109375,0.988525390625
1719126042.921,311,311,310,311,310,311,311,312,312,311,311,310,311,311,310,311,313,311,311,313,311,310,312,311,311,311,310,313,313,311,308,308,310,309,310,-28.0,3.0,41.0,-0.1831054538488388,0.0,-0.3662109076976776,-0.0208740234375,-0.000732421875,0.9879150390625
1719126042.931,311,310,310,310,310,310,312,311,311,310,311,311,311,311,310,311,311,311,312,311,311,311,312,311,311,313,313,312,313,311,310,310,310,311,310,-28.0,3.0,41.0,-0.1831054538488388,0.0,-0.3662109076976776,-0.0206298828125,-0.0003662109375,0.9869384765625
1719126042.941,311,311,309,311,310,311,310,311,311,311,311,311,311,311,311,312,312,311,312,311,312,312,311,311,311,312,312,312,313,311,310,310,310,310,311,-28.0,3.0,41.0,-0.1831054538488388,0.0,-0.3662109076976776,-0.0203857421875,0.0001220703125,0.9866943359375
1719126042.951,308,311,311,310,310,310,311,311,312,311,311,311,310,311,311,311,311,310,310,311,311,311,310,311,311,311,313,313,312,311,310,309,310,310,310,-28.0,3.0,41.0,-0.1831054538488388,0.0,-0.3662109076976776,-0.0196533203125,-0.0001220703125,0.98779296875
1719126042.961,311,310,310,311,311,312,312,311,311,311,311,311,311,311,311,311,311,310,312,311,312,312,312,311,311,313,312,313,313,310,310,310,310,310,310,-28.0,3.0,41.0,-0.1831054538488388,0.0,-0.3662109076976776,-0.0201416015625,-0.00048828125,0.9886474609375
1719126042.971,310,310,310,310,311,311,311,311,312,311,310,311,312,311,312,312,312,310,311,313,312,311,311,311,311,311,311,312,311,311,309,310,310,310,310,-28.0,3.0,41.0,-0.1831054538488388,0.0610351525247097,-0.3662109076976776,-0.0206298828125,-0.000244140625,0.9886474609375
1719126042.981,310,310,313,311,311,312,311,311,310,311,312,311,311,311,311,312,311,311,313,311,311,311,311,310,311,311,311,312,313,314,310,309,310,310,310,-28.0,3.0,41.0,-0.1831054538488388,0.0,-0.30517578125,-0.02001953125,-0.000244140625,0.98828125
1719126042.991,310,311,310,311,311,311,311,311,311,310,311,302,312,310,311,313,311,311,311,311,312,311,313,311,311,312,313,313,313,311,310,310,310,308,311,-28.0,3.0,41.0,-0.1831054538488388,0.0,-0.30517578125,-0.018798828125,-0.0006103515625,0.988037109375
1719126043.001,311,310,311,310,311,311,307,304,304,313,313,311,304,300,311,313,311,313,311,311,311,311,313,311,311,313,313,314,300,293,301,310,318,310,299,-27.0,4.0,37.0,-0.1220703050494194,0.0,-0.30517578125,-0.018798828125,-0.00048828125,0.9886474609375
1719126043.012,298,311,311,310,311,311,311,311,312,311,311,311,311,311,311,312,312,312,311,311,313,311,311,311,311,312,313,313,311,313,310,311,310,309,308,-27.0,4.0,37.0,-0.1220703050494194,0.0,-0.30517578125,-0.0196533203125,0.0,0.98828125
1719126043.021,310,311,310,311,304,311,311,302,300,302,312,311,311,312,311,312,311,312,311,312,311,312,311,312,312,312,313,312,312,312,310,309,310,311,310,-27.0,4.0,37.0,-0.1831054538488388,0.0,-0.30517578125,-0.020263671875,-0.000244140625,0.9873046875
1719126043.041,310,310,311,311,311,311,311,311,311,311,312,311,311,310,311,311,312,311,311,312,312,313,310,311,311,312,312,312,312,313,310,310,310,309,311,-27.0,4.0,37.0,-0.1831054538488388,0.0,-0.30517578125,-0.020263671875,-0.0020751953125,0.98828125
1719126043.051,310,310,310,310,311,311,311,302,311,312,311,311,311,313,311,311,312,311,311,312,311,312,311,310,311,313,313,313,311,314,311,310,310,310,308,-27.0,4.0,37.0,-0.1220703050494194,-0.0610351525247097,-0.3662109076976776,-0.0206298828125,-0.0010986328125,0.98876953125
1719126043.061,310,310,310,311,311,311,311,311,311,311,312,313,311,311,312,311,311,312,312,312,312,311,311,311,311,312,313,313,312,311,310,310,311,310,310,-27.0,4.0,37.0,-0.1220703050494194,-0.0610351525247097,-0.3662109076976776,-0.0205078125,-0.000244140625,0.9886474609375
1719126043.071,310,311,310,310,310,311,312,312,310,311,311,311,312,312,313,312,311,311,311,311,311,310,311,311,312,313,312,313,313,313,311,310,310,310,310,-27.0,4.0,37.0,-0.1831054538488388,-0.0610351525247097,-0.3662109076976776,-0.0201416015625,-0.0003662109375,0.987548828125
1719126043.081,311,310,311,311,310,311,311,310,311,311,311,310,313,311,312,311,311,313,312,311,310,312,311,311,312,311,311,313,313,312,298,310,310,311,315,-27.0,4.0,37.0,-0.2441406100988388,0.0,-0.3662109076976776,-0.019775390625,-0.0010986328125,0.9869384765625
1719126043.091,310,312,312,310,311,313,311,311,311,311,311,312,310,311,311,311,311,312,310,313,311,310,311,311,312,311,312,312,312,313,310,310,310,310,311,-27.0,4.0,37.0,-0.2441406100988388,0.0,-0.30517578125,-0.019775390625,-0.0013427734375,0.9874267578125
1719126043.101,310,311,310,311,310,311,311,312,311,311,310,311,310,311,311,311,312,313,311,312,311,311,311,312,312,311,313,313,312,312,310,309,312,310,310,-25.0,2.0,39.0,-0.1831054538488388,0.0,-0.30517578125,-0.019775390625,-0.001220703125,0.988037109375
1719126043.111,310,311,310,310,311,311,311,312,311,311,310,311,311,311,311,311,312,311,311,311,310,311,313,311,311,311,311,313,311,313,310,310,310,311,310,-25.0,2.0,39.0,-0.1220703050494194,0.0,-0.30517578125,-0.019775390625,-0.0009765625,0.9884033203125
1719126043.121,310,311,310,311,311,311,311,304,311,310,311,311,311,311,311,312,311,311,311,311,311,312,312,311,311,313,312,311,313,313,310,310,308,310,311,-25.0,2.0,39.0,-0.1220703050494194,-0.0610351525247097,-0.3662109076976776,-0.0194091796875,-0.0008544921875,0.98828125
1719126043.131,311,310,310,311,310,312,311,312,312,313,312,310,311,312,312,313,313,311,312,311,311,312,312,311,311,312,312,311,312,312,310,310,310,311,310,-25.0,2.0,39.0,-0.1220703050494194,-0.0610351525247097,-0.3662109076976776,-0.0191650390625,-0.0013427734375,0.98828125
1719126043.141,310,310,311,310,310,311,312,312,310,311,311,312,312,311,310,310,311,311,311,313,310,312,311,311,311,312,311,313,312,312,310,310,310,310,310,-25.0,2.0,39.0,-0.1831054538488388,-0.0610351525247097,-0.3662109076976776,-0.0198974609375,-0.00146484375,0.988525390625
1719126043.151,310,311,311,311,311,311,311,311,310,311,311,311,311,311,311,311,311,310,311,312,312,311,313,311,311,312,311,313,313,312,310,310,302,310,310,-25.0,2.0,39.0,-0.1831054538488388,-0.0610351525247097,-0.3662109076976776,-0.0205078125,-0.000732421875,0.9886474609375
1719126043.161,310,309,310,311,310,311,311,312,312,311,311,313,310,311,311,312,308,312,312,313,300,313,302,311,299,311,313,312,311,311,310,310,308,310,311,-25.0,2.0,39.0,-0.1220703050494194,-0.0610351525247097,-0.3662109076976776,-0.02001953125,-0.00048828125,0.9881591796875
1719126043.171,308,311,310,310,311,311,310,313,311,311,312,311,312,311,311,312,311,312,311,312,311,311,311,312,311,313,313,311,313,313,310,310,310,304,310,-25.0,2.0,39.0,-0.1220703050494194,0.0,-0.3662109076976776,-0.0196533203125,-0.0010986328125,0.98779296875
