"// DN: 108, SN: 35"
Timestamp,P1,P2,P3,P4,P5,P6,P7,P8,P9,P10,P11,P12,P13,P14,P15,P16,P17,P18,P19,P20,P21,P22,P23,P24,P25,Mag_x,Mag_y,Mag_z,Gyro_x,Gyro_y,Gyro_z,Acc_x,Acc_y,Acc_z
1721179454.011,310,310,311,311,310,311,311,311,311,312,311,312,310,311,311,312,311,310,311,311,312,311,313,311,312,18.0,-33.0,28.0,0.30517578125,-0.0610351525247097,-0.2441406100988388,-0.0145263671875,-0.013916015625,0.98779296875
1721179454.021,310,311,311,311,310,311,312,311,312,311,312,311,311,311,311,311,311,311,311,311,311,311,311,311,311,18.0,-33.0,28.0,1.0986328125,-0.0610351525247097,-0.3662109076976776,-0.0145263671875,-0.013916015625,0.98779296875
1721179454.031,310,310,311,311,311,313,313,312,312,311,311,311,312,311,312,311,312,311,312,311,311,312,311,310,311,18.0,-33.0,27.0,1.0986328125,-0.0610351525247097,-0.3662109076976776,-0.01416015625,-0.0126953125,0.98681640625
1721179454.041,310,311,311,310,311,312,312,310,301,302,312,311,311,311,312,311,312,311,311,311,311,310,311,311,312,18.0,-33.0,27.0,0.6713866591453552,-0.0610351525247097,-0.3662109076976776,-0.013671875,-0.012451171875,0.9864501953125
1721179454.051,311,310,311,310,311,311,311,311,311,311,311,311,311,310,311,313,311,311,311,312,312,311,313,311,313,18.0,-33.0,27.0,-0.9765624403953552,-0.1220703050494194,-0.2441406100988388,-0.013671875,-0.012451171875,0.9864501953125
1721179454.061,311,311,310,309,310,312,312,312,313,312,311,311,312,311,312,310,311,311,311,311,310,311,310,312,313,18.0,-33.0,27.0,-0.9765624403953552,-0.1220703050494194,-0.2441406100988388,-0.0137939453125,-0.01416015625,0.988525390625
1721179454.071,310,311,311,311,311,311,312,310,311,311,311,311,311,311,311,311,311,311,311,311,311,311,310,311,312,18.0,-33.0,27.0,-1.3427733182907104,-0.1220703050494194,-0.1220703050494194,-0.0133056640625,-0.0167236328125,0.989990234375
1721179454.081,310,310,310,310,311,311,312,312,311,313,311,311,311,314,311,311,313,310,310,313,311,312,311,311,313,18.0,-33.0,27.0,-0.4882812201976776,-0.1220703050494194,-0.1831054538488388,-0.0133056640625,-0.0167236328125,0.989990234375
1721179454.091,310,311,310,311,311,311,311,311,312,311,311,312,311,312,311,311,311,311,311,312,311,311,311,313,313,18.0,-33.0,27.0,-0.4882812201976776,-0.1220703050494194,-0.1831054538488388,-0.0133056640625,-0.0169677734375,0.9891357421875
1721179454.101,310,310,310,311,310,310,311,311,311,311,311,311,311,311,311,313,311,310,311,311,311,313,311,312,311,18.0,-33.0,27.0,0.30517578125,-0.0610351525247097,-0.2441406100988388,-0.0135498046875,-0.0157470703125,0.98828125
1721179454.111,310,309,310,310,312,311,310,311,313,313,312,313,310,311,312,311,312,310,310,311,311,312,311,311,312,18.0,-33.0,27.0,0.7934569716453552,-0.0610351525247097,-0.2441406100988388,-0.0137939453125,-0.0140380859375,0.9879150390625
1721179454.121,310,311,310,310,310,311,312,313,311,312,311,311,310,311,311,312,311,312,313,311,311,312,312,311,311,18.0,-34.0,28.0,0.8544921278953552,-0.0610351525247097,-0.30517578125,-0.0137939453125,-0.0126953125,0.98828125
1721179454.131,311,311,311,310,311,311,312,311,311,311,312,311,311,310,311,310,311,311,310,311,311,311,311,311,311,18.0,-34.0,28.0,0.3662109076976776,-0.0610351525247097,-0.30517578125,-0.0142822265625,-0.0120849609375,0.9881591796875
1721179454.141,311,310,311,310,312,312,310,312,311,311,311,311,311,312,311,311,311,311,311,311,311,310,312,312,311,18.0,-34.0,28.0,-0.30517578125,-0.0610351525247097,-0.2441406100988388,-0.0150146484375,-0.0128173828125,0.9869384765625
1721179454.151,311,311,310,310,310,311,312,311,312,311,311,311,311,312,311,311,311,312,313,312,311,310,311,313,312,18.0,-34.0,28.0,-0.7324218153953552,-0.1220703050494194,-0.1831054538488388,-0.0147705078125,-0.0140380859375,0.9869384765625
1721179454.161,311,311,311,311,313,311,312,312,312,311,310,311,311,311,313,312,311,311,312,310,312,313,312,312,311,18.0,-34.0,28.0,-0.7934569716453552,-0.1220703050494194,-0.1831054538488388,-0.0142822265625,-0.015869140625,0.98779296875
1721179454.171,311,310,310,310,311,311,311,313,311,311,311,311,312,310,311,311,312,311,311,311,311,313,311,311,311,18.0,-34.0,28.0,-0.6103515625,-0.0610351525247097,-0.1831054538488388,-0.0140380859375,-0.016845703125,0.9884033203125
1721179454.181,311,311,310,310,310,312,312,311,312,311,311,311,314,313,312,312,310,311,311,313,310,312,311,310,312,18.0,-34.0,28.0,-0.30517578125,-0.0610351525247097,-0.1831054538488388,-0.0137939453125,-0.01708984375,0.989501953125
1721179454.191,311,311,310,310,311,311,311,311,311,313,313,311,311,311,311,313,311,312,310,310,311,311,311,311,311,18.0,-34.0,28.0,0.0610351525247097,-0.0610351525247097,-0.2441406100988388,-0.014404296875,-0.015869140625,0.9892578125
1721179454.201,310,307,310,311,309,311,311,312,311,311,310,310,311,311,311,302,311,312,312,311,311,312,312,310,311,18.0,-34.0,28.0,0.3662109076976776,-0.0610351525247097,-0.2441406100988388,-0.015380859375,-0.0137939453125,0.987548828125
1721179454.211,311,310,311,311,311,311,311,311,311,312,311,313,311,311,313,311,313,312,311,312,312,311,312,311,311,18.0,-34.0,28.0,0.4272460639476776,-0.0610351525247097,-0.30517578125,-0.01513671875,-0.0126953125,0.9873046875
1721179454.221,311,311,311,310,310,311,310,310,311,311,311,312,312,311,312,313,313,310,311,311,311,311,311,311,310,18.0,-32.0,33.0,0.1831054538488388,-0.0610351525247097,-0.30517578125,-0.014404296875,-0.0128173828125,0.98828125
1721179454.231,311,311,310,310,310,311,313,311,312,312,311,310,310,311,313,313,311,311,311,311,313,309,311,311,312,18.0,-32.0,33.0,-0.2441406100988388,-0.0610351525247097,-0.2441406100988388,-0.0137939453125,-0.0137939453125,0.988525390625
1721179454.241,310,311,311,310,310,312,311,311,311,311,311,311,311,311,313,311,311,313,313,312,311,312,312,311,312,18.0,-32.0,33.0,-0.6103515625,0.0,-0.2441406100988388,-0.0133056640625,-0.0142822265625,0.98876953125
1721179454.251,310,311,312,310,311,313,311,311,311,311,313,311,311,310,312,312,312,312,315,310,311,312,312,311,312,18.0,-32.0,33.0,-0.7934569716453552,0.0,-0.1831054538488388,-0.0133056640625,-0.0150146484375,0.9888916015625
1721179454.261,311,312,310,311,311,310,313,311,313,312,311,311,310,311,313,312,311,311,311,312,312,313,311,311,311,18.0,-32.0,33.0,-0.7324218153953552,-0.0610351525247097,-0.1831054538488388,-0.013427734375,-0.0159912109375,0.9888916015625
1721179454.271,310,310,311,310,312,311,311,311,310,313,312,310,312,312,311,313,313,313,311,311,310,311,311,311,312,18.0,-32.0,33.0,-0.4882812201976776,-0.0610351525247097,-0.2441406100988388,-0.0140380859375,-0.016357421875,0.989013671875
1721179454.281,310,310,310,311,311,310,312,311,313,311,311,312,311,311,312,311,311,311,311,311,312,312,313,311,311,18.0,-32.0,33.0,0.0610351525247097,-0.0610351525247097,-0.30517578125,-0.014892578125,-0.0155029296875,0.9888916015625
1721179454.291,311,310,309,311,311,311,311,311,311,311,311,311,312,311,312,311,310,312,310,312,311,311,310,311,311,18.0,-32.0,33.0,0.6103515625,-0.0610351525247097,-0.30517578125,-0.0146484375,-0.0133056640625,0.988037109375
1721179454.301,310,311,310,310,311,311,311,310,313,311,311,311,311,312,311,310,310,311,311,312,312,312,312,310,311,18.0,-32.0,33.0,0.7324218153953552,-0.0610351525247097,-0.30517578125,-0.0140380859375,-0.011962890625,0.988037109375
1721179454.311,310,311,310,311,311,310,311,311,311,311,311,311,310,310,313,314,311,312,311,310,311,313,311,311,311,18.0,-32.0,33.0,0.2441406100988388,-0.0610351525247097,-0.30517578125,-0.0145263671875,-0.0130615234375,0.9893798828125
1721179454.321,310,311,310,310,310,311,313,311,311,311,311,311,312,311,311,312,310,312,312,312,310,311,311,313,311,18.0,-32.0,33.0,-0.30517578125,0.0,-0.2441406100988388,-0.0155029296875,-0.0145263671875,0.989013671875
1721179454.331,310,310,310,310,312,311,310,311,311,312,310,311,311,311,310,313,312,311,313,311,311,311,311,311,311,18.0,-34.0,30.0,-0.6713866591453552,0.0,-0.1831054538488388,-0.0155029296875,-0.0150146484375,0.98779296875
1721179454.341,310,310,310,311,310,311,311,311,311,311,312,311,310,312,311,311,312,312,311,312,312,312,311,311,311,18.0,-34.0,30.0,-0.7934569716453552,0.0,-0.1831054538488388,-0.0147705078125,-0.0157470703125,0.9884033203125
1721179454.351,311,311,311,311,311,311,311,311,311,313,311,313,310,310,311,311,312,311,312,311,312,311,311,310,311,18.0,-34.0,30.0,-0.7324218153953552,0.0,-0.2441406100988388,-0.013916015625,-0.0166015625,0.989013671875
1721179454.361,311,310,310,310,311,311,313,311,312,314,311,311,311,312,310,313,311,312,312,313,311,310,311,310,313,18.0,-34.0,30.0,-0.4272460639476776,-0.0610351525247097,-0.2441406100988388,-0.0137939453125,-0.015869140625,0.9891357421875
1721179454.371,310,308,311,311,311,313,313,311,311,311,311,312,311,311,311,312,312,312,312,312,311,311,312,311,313,18.0,-34.0,30.0,0.0,-0.0610351525247097,-0.2441406100988388,-0.013671875,-0.014892578125,0.9892578125
1721179454.381,311,311,311,308,310,312,311,310,312,311,301,310,311,311,312,311,311,311,312,312,312,311,310,311,311,18.0,-34.0,30.0,0.3662109076976776,-0.0610351525247097,-0.2441406100988388,-0.012939453125,-0.0142822265625,0.9886474609375
1721179454.391,311,311,310,310,311,311,312,311,311,313,311,313,311,313,313,311,311,313,311,312,310,311,311,311,311,18.0,-34.0,30.0,0.3662109076976776,-0.0610351525247097,-0.2441406100988388,-0.0130615234375,-0.014404296875,0.9873046875
1721179454.401,311,311,310,310,311,311,311,311,311,313,310,311,311,311,312,312,311,311,311,311,312,312,310,312,312,18.0,-34.0,30.0,0.1220703050494194,-0.0610351525247097,-0.2441406100988388,-0.0140380859375,-0.0147705078125,0.9871826171875
1721179454.411,310,312,310,311,309,310,311,310,311,311,312,310,311,312,311,311,311,311,311,311,311,311,310,311,311,18.0,-34.0,30.0,-0.2441406100988388,-0.0610351525247097,-0.2441406100988388,-0.01513671875,-0.014892578125,0.98779296875
1721179454.421,310,311,311,309,310,313,311,311,313,312,313,313,312,313,310,313,310,311,311,312,311,313,312,313,311,20.0,-31.0,32.0,-0.4272460639476776,-0.0610351525247097,-0.2441406100988388,-0.01513671875,-0.014892578125,0.9874267578125
1721179454.431,310,311,310,312,311,310,311,311,310,311,311,313,310,310,311,311,312,313,311,311,311,312,311,311,311,20.0,-31.0,32.0,-0.4882812201976776,-0.1220703050494194,-0.2441406100988388,-0.0140380859375,-0.01513671875,0.9874267578125
1721179454.441,310,310,310,310,311,312,311,312,311,311,311,311,311,313,311,311,311,312,312,311,312,310,311,311,311,20.0,-31.0,32.0,-0.3662109076976776,-0.1220703050494194,-0.2441406100988388,-0.013427734375,-0.0157470703125,0.98876953125
1721179454.451,310,310,310,310,312,311,312,311,311,311,311,312,311,310,312,310,310,311,312,311,312,310,311,311,310,20.0,-31.0,32.0,-0.1831054538488388,-0.1220703050494194,-0.1831054538488388,-0.0133056640625,-0.0155029296875,0.98876953125
1721179454.461,310,311,309,311,311,311,311,311,311,311,310,312,311,311,311,312,311,311,312,311,312,311,311,311,311,20.0,-31.0,32.0,0.0,-0.1220703050494194,-0.2441406100988388,-0.0135498046875,-0.0145263671875,0.9876708984375
1721179454.471,311,308,309,310,310,311,311,311,312,311,311,311,310,311,311,311,311,311,311,311,311,311,310,311,310,20.0,-31.0,32.0,0.0610351525247097,-0.1220703050494194,-0.2441406100988388,-0.013671875,-0.01416015625,0.986572265625
1721179454.481,311,310,311,308,310,310,311,311,311,311,313,311,312,311,311,313,311,310,311,311,311,310,311,313,311,20.0,-31.0,32.0,0.1220703050494194,-0.0610351525247097,-0.30517578125,-0.013671875,-0.013916015625,0.98681640625
1721179454.491,310,311,310,309,311,310,310,311,311,311,313,311,311,311,311,311,310,311,312,311,311,311,312,311,313,20.0,-31.0,32.0,0.1220703050494194,-0.0610351525247097,-0.30517578125,-0.014404296875,-0.013916015625,0.98779296875
1721179454.501,310,311,310,311,310,311,311,311,311,311,312,311,311,311,311,311,312,311,312,312,311,311,311,310,311,20.0,-31.0,32.0,-0.1220703050494194,-0.1220703050494194,-0.2441406100988388,-0.014892578125,-0.0142822265625,0.9874267578125
1721179454.511,308,310,308,310,310,312,311,311,312,311,311,311,311,313,311,312,311,312,311,312,311,310,310,312,311,20.0,-31.0,32.0,-0.4272460639476776,-0.1220703050494194,-0.2441406100988388,-0.0147705078125,-0.0150146484375,0.9871826171875
1721179454.521,310,311,311,311,311,310,311,311,310,311,311,311,311,310,312,311,312,311,311,312,310,311,311,311,311,17.0,-35.0,33.0,-0.6713866591453552,-0.1220703050494194,-0.2441406100988388,-0.014404296875,-0.0155029296875,0.9879150390625
1721179454.531,310,310,311,310,311,312,311,311,311,312,311,311,311,311,312,312,311,311,311,313,311,312,310,310,313,17.0,-35.0,33.0,-0.54931640625,-0.1220703050494194,-0.1831054538488388,-0.013916015625,-0.0157470703125,0.9888916015625
1721179454.541,310,312,310,310,310,311,310,311,311,311,311,311,311,310,311,312,310,312,313,311,312,312,311,312,310,17.0,-35.0,33.0,-0.1831054538488388,-0.1220703050494194,-0.1831054538488388,-0.0137939453125,-0.0157470703125,0.9891357421875
1721179454.551,310,311,310,311,310,311,311,310,313,311,312,311,311,310,312,311,311,310,313,313,313,311,312,312,311,17.0,-35.0,33.0,0.1831054538488388,-0.0610351525247097,-0.2441406100988388,-0.013427734375,-0.0152587890625,0.988525390625
1721179454.561,311,311,310,311,311,312,311,311,311,311,311,310,312,311,311,312,313,311,311,312,311,310,311,311,312,17.0,-35.0,33.0,0.30517578125,-0.0610351525247097,-0.30517578125,-0.01318359375,-0.0147705078125,0.9873046875
1721179454.571,311,310,310,310,310,311,312,313,312,312,311,311,312,311,311,313,310,310,311,312,311,311,311,311,311,17.0,-35.0,33.0,0.30517578125,-0.0610351525247097,-0.2441406100988388,-0.01318359375,-0.0147705078125,0.98583984375
1721179454.581,310,308,310,308,311,311,311,310,313,310,312,311,312,311,311,310,311,312,311,310,311,311,312,311,311,17.0,-35.0,33.0,0.1831054538488388,-0.0610351525247097,-0.2441406100988388,-0.01318359375,-0.014892578125,0.9857177734375
1721179454.591,310,310,310,310,311,311,310,311,313,311,311,313,312,311,310,310,311,311,311,312,311,311,311,312,311,17.0,-35.0,33.0,-0.0610351525247097,-0.1220703050494194,-0.2441406100988388,-0.013671875,-0.0146484375,0.9874267578125
1721179454.601,311,312,310,310,310,310,313,312,311,312,311,311,311,311,311,311,310,311,312,312,311,312,311,311,311,17.0,-35.0,33.0,-0.3662109076976776,-0.1220703050494194,-0.2441406100988388,-0.01416015625,-0.014404296875,0.98876953125
1721179454.611,310,310,310,311,311,311,311,311,311,311,310,311,310,310,311,312,311,311,311,311,311,310,311,311,311,17.0,-35.0,33.0,-0.4882812201976776,-0.1831054538488388,-0.2441406100988388,-0.0137939453125,-0.0142822265625,0.9892578125
1721179454.621,310,310,311,310,310,311,311,312,311,312,311,311,311,310,311,311,311,311,310,312,312,311,311,310,310,17.0,-35.0,33.0,-0.3662109076976776,-0.1220703050494194,-0.2441406100988388,-0.013427734375,-0.01416015625,0.98974609375
1721179454.631,311,311,310,310,310,310,311,310,311,312,311,311,311,311,311,311,310,310,311,312,311,312,311,311,311,21.0,-33.0,29.0,-0.1831054538488388,-0.0610351525247097,-0.1831054538488388,-0.01318359375,-0.0142822265625,0.9901123046875
1721179454.641,311,311,310,310,311,313,311,311,311,313,313,311,312,311,311,311,311,311,312,311,311,311,311,311,313,21.0,-33.0,29.0,-0.1220703050494194,-0.0610351525247097,-0.1831054538488388,-0.013427734375,-0.0147705078125,0.9888916015625
1721179454.651,310,310,311,311,311,311,315,312,311,311,310,310,311,311,311,310,311,311,311,311,311,311,311,311,311,21.0,-33.0,29.0,-0.1220703050494194,-0.1220703050494194,-0.2441406100988388,-0.013916015625,-0.015625,0.988037109375
1721179454.661,310,311,310,310,308,311,312,310,311,311,311,311,311,311,311,312,311,310,313,311,309,313,312,310,311,21.0,-33.0,29.0,0.0610351525247097,-0.1220703050494194,-0.2441406100988388,-0.0142822265625,-0.0159912109375,0.9879150390625
1721179454.671,311,310,311,309,310,310,311,311,311,311,311,313,311,310,313,311,311,312,311,311,311,311,311,311,312,21.0,-33.0,29.0,0.30517578125,-0.1831054538488388,-0.2441406100988388,-0.01416015625,-0.0147705078125,0.987060546875
1721179454.681,310,310,310,310,310,310,310,311,311,310,311,310,311,310,311,312,311,312,310,313,310,311,311,311,311,21.0,-33.0,29.0,0.30517578125,-0.1831054538488388,-0.2441406100988388,-0.01416015625,-0.013427734375,0.987548828125
1721179454.691,311,310,311,311,310,310,311,311,311,311,310,312,310,311,312,311,310,311,310,313,311,311,311,311,311,21.0,-33.0,29.0,-0.0610351525247097,-0.1220703050494194,-0.2441406100988388,-0.013916015625,-0.013427734375,0.98876953125
1721179454.701,310,311,311,310,310,312,310,310,313,311,313,311,311,310,312,311,311,311,311,311,311,311,313,311,311,21.0,-33.0,29.0,-0.4882812201976776,-0.0610351525247097,-0.2441406100988388,-0.0137939453125,-0.0142822265625,0.9886474609375
1721179454.711,310,310,310,311,311,312,312,311,311,313,311,311,312,311,310,310,313,311,311,313,311,313,311,311,311,21.0,-33.0,29.0,-0.6103515625,-0.0610351525247097,-0.2441406100988388,-0.01416015625,-0.0150146484375,0.988525390625
1721179454.721,310,310,311,310,310,311,311,312,311,312,311,312,311,312,310,311,311,312,311,311,313,311,312,310,312,21.0,-33.0,29.0,-0.3662109076976776,-0.0610351525247097,-0.2441406100988388,-0.014404296875,-0.0155029296875,0.9888916015625
1721179454.731,310,311,310,310,310,311,312,311,310,311,310,311,311,304,311,311,311,311,311,310,311,311,313,311,311,18.0,-33.0,36.0,-0.0610351525247097,-0.1220703050494194,-0.2441406100988388,-0.01416015625,-0.015625,0.987548828125
1721179454.741,310,311,310,309,312,311,311,310,311,311,311,311,310,310,311,311,312,310,311,311,311,310,311,313,311,18.0,-33.0,36.0,0.1831054538488388,-0.1220703050494194,-0.2441406100988388,-0.013671875,-0.015380859375,0.9859619140625
1721179454.751,311,311,310,310,308,313,311,311,311,310,311,310,311,313,311,311,311,311,313,313,312,312,311,312,311,18.0,-33.0,36.0,0.2441406100988388,-0.1220703050494194,-0.2441406100988388,-0.013671875,-0.0150146484375,0.987060546875
1721179454.761,311,311,311,310,311,312,310,311,312,313,310,311,311,311,311,312,312,310,313,311,311,311,311,312,311,18.0,-33.0,36.0,0.1220703050494194,-0.0610351525247097,-0.2441406100988388,-0.014404296875,-0.0140380859375,0.9886474609375
1721179454.771,312,310,311,310,312,311,313,311,311,310,311,311,311,310,311,311,313,311,310,311,310,311,311,311,312,18.0,-33.0,36.0,-0.1220703050494194,-0.0610351525247097,-0.2441406100988388,-0.014892578125,-0.0137939453125,0.98828125
1721179454.781,310,310,309,309,311,311,311,310,311,311,311,311,311,312,311,311,312,311,311,311,310,311,311,311,313,18.0,-33.0,36.0,-0.4882812201976776,-0.1220703050494194,-0.1831054538488388,-0.0146484375,-0.014892578125,0.9879150390625
1721179454.791,309,310,311,310,311,311,311,310,311,312,311,311,310,312,311,311,312,311,311,311,311,312,312,311,313,18.0,-33.0,36.0,-0.6103515625,-0.1220703050494194,-0.1831054538488388,-0.0145263671875,-0.01611328125,0.9888916015625
1721179454.801,310,311,310,311,312,313,311,311,311,311,311,312,312,311,312,311,310,311,311,311,311,310,311,312,313,18.0,-33.0,36.0,-0.4272460639476776,-0.1220703050494194,-0.1831054538488388,-0.0140380859375,-0.0162353515625,0.9891357421875
1721179454.811,310,311,310,310,311,311,311,313,311,311,311,311,311,311,311,313,311,311,311,311,311,311,312,313,312,18.0,-33.0,36.0,-0.0610351525247097,-0.1220703050494194,-0.1831054538488388,-0.0137939453125,-0.0152587890625,0.988037109375
1721179454.821,311,310,311,310,311,311,311,311,311,311,312,312,311,310,312,311,313,311,310,311,313,311,312,311,312,17.0,-32.0,30.0,0.1831054538488388,-0.1220703050494194,-0.2441406100988388,-0.0146484375,-0.014892578125,0.9879150390625
1721179454.831,311,310,310,311,311,310,310,313,312,311,311,310,310,311,311,311,312,312,311,311,311,310,312,311,311,17.0,-32.0,30.0,0.2441406100988388,-0.1220703050494194,-0.2441406100988388,-0.0150146484375,-0.0150146484375,0.98779296875
1721179454.841,311,310,310,310,310,310,311,311,311,312,311,313,311,311,311,311,310,313,313,312,311,312,311,310,311,17.0,-32.0,30.0,0.1220703050494194,-0.1831054538488388,-0.2441406100988388,-0.0146484375,-0.0147705078125,0.98681640625
1721179454.851,309,310,308,310,310,311,311,311,311,311,311,310,310,311,311,313,311,312,311,311,311,312,311,311,312,17.0,-32.0,30.0,0.0,-0.1831054538488388,-0.2441406100988388,-0.0142822265625,-0.014404296875,0.9864501953125
1721179454.861,310,310,310,310,311,311,311,311,312,311,311,311,311,310,310,311,311,312,314,311,311,311,311,311,311,17.0,-32.0,30.0,-0.0610351525247097,-0.1220703050494194,-0.1831054538488388,-0.0147705078125,-0.0140380859375,0.9869384765625
1721179454.871,311,311,310,312,311,310,311,311,312,311,310,311,311,311,312,313,311,310,311,313,311,310,312,312,310,17.0,-32.0,30.0,-0.2441406100988388,-0.1220703050494194,-0.1831054538488388,-0.01513671875,-0.0140380859375,0.9876708984375
1721179454.881,311,312,310,311,310,312,312,310,310,311,311,311,313,311,311,312,312,311,310,311,311,311,311,311,312,17.0,-32.0,30.0,-0.6103515625,-0.1220703050494194,-0.2441406100988388,-0.014404296875,-0.0155029296875,0.98828125
1721179454.891,311,311,311,311,311,311,310,312,310,312,311,311,311,311,311,311,311,311,311,311,311,312,310,312,311,17.0,-32.0,30.0,-0.7934569716453552,-0.0610351525247097,-0.2441406100988388,-0.0142822265625,-0.0174560546875,0.989013671875
1721179454.901,310,310,310,308,310,312,312,311,310,311,311,312,311,311,311,312,311,313,312,313,311,311,312,312,310,17.0,-32.0,30.0,-0.54931640625,-0.0610351525247097,-0.2441406100988388,-0.014404296875,-0.0177001953125,0.98876953125
1721179454.911,311,311,311,311,310,313,311,311,311,310,311,311,311,312,310,311,311,311,310,311,312,311,312,310,311,17.0,-32.0,30.0,0.0610351525247097,-0.0610351525247097,-0.1831054538488388,-0.0137939453125,-0.01611328125,0.9871826171875
1721179454.921,310,311,310,310,311,312,311,310,312,311,311,312,311,311,311,311,310,312,311,312,312,311,310,311,311,17.0,-32.0,30.0,0.4882812201976776,-0.1220703050494194,-0.2441406100988388,-0.0130615234375,-0.0145263671875,0.986328125
1721179454.931,311,311,310,310,310,311,311,311,311,311,314,312,311,312,311,311,311,311,312,311,312,311,312,311,312,19.0,-32.0,35.0,0.4272460639476776,-0.1220703050494194,-0.1831054538488388,-0.0130615234375,-0.0137939453125,0.986572265625
1721179454.941,311,311,310,311,311,311,311,311,311,311,311,311,312,311,311,311,311,313,311,311,311,311,312,310,311,19.0,-32.0,35.0,0.0,-0.1220703050494194,-0.1831054538488388,-0.0135498046875,-0.014404296875,0.987548828125
1721179454.951,310,313,309,310,311,311,311,312,311,312,311,311,311,311,311,310,312,311,310,312,311,311,310,312,311,19.0,-32.0,35.0,-0.30517578125,-0.0610351525247097,-0.2441406100988388,-0.013916015625,-0.0150146484375,0.9881591796875
1721179454.961,311,311,310,311,311,311,311,311,311,311,311,311,310,313,313,311,311,312,311,311,311,311,311,312,310,19.0,-32.0,35.0,-0.4882812201976776,-0.0610351525247097,-0.2441406100988388,-0.013916015625,-0.0152587890625,0.98828125
1721179454.971,311,310,310,312,311,311,312,312,311,311,312,311,310,311,311,311,312,312,314,311,310,311,312,312,311,19.0,-32.0,35.0,-0.4272460639476776,-0.0610351525247097,-0.2441406100988388,-0.0135498046875,-0.0155029296875,0.988525390625
1721179454.981,311,310,311,310,310,311,312,311,312,311,310,312,311,311,311,311,311,311,311,311,311,312,311,311,311,19.0,-32.0,35.0,-0.30517578125,-0.1220703050494194,-0.2441406100988388,-0.0133056640625,-0.0159912109375,0.989013671875
1721179454.991,310,310,310,310,310,311,311,311,312,311,311,311,312,312,311,311,312,312,313,311,311,310,311,311,311,19.0,-32.0,35.0,0.0,-0.1220703050494194,-0.2441406100988388,-0.013427734375,-0.015625,0.98828125
1721179455.001,310,312,310,310,311,311,311,311,310,311,311,310,310,311,310,311,310,311,313,311,311,312,312,313,311,19.0,-32.0,35.0,0.1831054538488388,-0.1220703050494194,-0.2441406100988388,-0.013427734375,-0.0150146484375,0.9873046875
1721179455.011,311,299,311,311,311,310,311,311,311,312,311,310,311,311,311,311,311,311,313,311,311,310,312,311,312,19.0,-32.0,35.0,0.1220703050494194,-0.0610351525247097,-0.30517578125,-0.0130615234375,-0.0146484375,0.9876708984375
1721179455.021,311,308,311,310,311,311,312,311,313,311,311,311,312,310,311,311,310,311,312,313,310,311,312,311,311,19.0,-32.0,35.0,-0.1220703050494194,-0.0610351525247097,-0.2441406100988388,-0.013427734375,-0.014404296875,0.9886474609375
1721179455.031,310,310,310,311,310,311,311,310,313,313,313,311,311,310,311,311,310,310,310,313,311,311,312,311,312,17.0,-32.0,26.0,-0.2441406100988388,0.0,-0.1831054538488388,-0.014404296875,-0.0145263671875,0.9892578125
1721179455.041,311,310,310,309,310,313,311,311,312,313,311,311,312,311,313,311,311,311,311,312,311,313,311,311,310,17.0,-32.0,26.0,-0.2441406100988388,-0.0610351525247097,-0.1831054538488388,-0.0142822265625,-0.01416015625,0.988037109375
1721179455.051,310,310,310,310,310,311,312,313,313,313,311,310,311,310,311,310,311,312,312,311,311,311,311,311,311,17.0,-32.0,26.0,-0.1831054538488388,-0.0610351525247097,-0.1831054538488388,-0.0135498046875,-0.0142822265625,0.9864501953125
1721179455.061,311,312,311,311,311,311,311,311,310,311,312,310,310,311,311,312,311,311,311,310,311,313,311,313,310,17.0,-32.0,26.0,-0.3662109076976776,-0.0610351525247097,-0.2441406100988388,-0.0135498046875,-0.015380859375,0.987548828125
1721179455.071,311,310,311,310,310,311,311,311,311,311,311,311,310,310,311,312,311,310,313,312,312,310,311,312,311,17.0,-32.0,26.0,-0.4882812201976776,-0.1220703050494194,-0.2441406100988388,-0.014404296875,-0.0166015625,0.989990234375
1721179455.081,310,311,310,312,310,310,312,311,312,312,312,311,311,313,312,311,311,311,312,313,311,311,311,310,312,17.0,-32.0,26.0,-0.2441406100988388,-0.1220703050494194,-0.2441406100988388,-0.014404296875,-0.016845703125,0.9901123046875
1721179455.091,311,310,311,310,310,311,312,310,311,311,311,313,313,311,311,313,311,312,311,311,311,311,312,312,311,17.0,-32.0,26.0,0.1220703050494194,-0.1220703050494194,-0.2441406100988388,-0.0130615234375,-0.0157470703125,0.989013671875
1721179455.101,310,311,310,311,311,312,311,311,311,311,313,311,311,312,311,311,311,311,312,311,311,311,311,310,312,17.0,-32.0,26.0,0.3662109076976776,-0.0610351525247097,-0.30517578125,-0.01220703125,-0.0150146484375,0.9884033203125
1721179455.111,308,311,311,311,311,311,311,312,312,312,311,311,311,311,311,311,311,311,312,312,311,313,312,311,313,17.0,-32.0,26.0,0.2441406100988388,-0.0610351525247097,-0.30517578125,-0.0126953125,-0.0145263671875,0.98779296875
1721179455.121,310,310,311,311,310,311,311,311,310,311,310,311,311,310,311,312,311,312,311,311,312,312,311,311,312,18.0,-35.0,29.0,-0.0610351525247097,-0.0610351525247097,-0.30517578125,-0.0135498046875,-0.0140380859375,0.9876708984375
1721179455.131,311,310,310,310,310,311,313,311,310,311,311,310,311,310,310,311,312,311,313,312,311,311,311,311,310,18.0,-35.0,29.0,-0.30517578125,-0.1220703050494194,-0.2441406100988388,-0.014404296875,-0.0146484375,0.9886474609375
1721179455.141,310,311,310,311,311,311,311,311,311,312,311,312,311,311,310,311,312,312,311,310,311,312,311,311,311,18.0,-35.0,29.0,-0.3662109076976776,-0.1220703050494194,-0.1831054538488388,-0.01513671875,-0.01513671875,0.9884033203125
1721179455.151,309,311,311,310,308,311,311,311,311,313,311,311,311,310,310,311,311,311,313,311,311,312,311,313,311,18.0,-35.0,29.0,-0.3662109076976776,-0.0610351525247097,-0.1220703050494194,-0.014892578125,-0.014892578125,0.987548828125
1721179455.161,310,311,308,309,311,311,311,311,311,311,311,312,312,310,311,311,313,310,312,312,311,312,312,311,311,18.0,-35.0,29.0,-0.30517578125,-0.0610351525247097,-0.1831054538488388,-0.0135498046875,-0.0155029296875,0.98876953125
1721179455.171,310,310,311,310,310,310,311,311,311,312,311,311,311,313,311,311,312,311,312,312,310,311,312,311,311,18.0,-35.0,29.0,-0.1831054538488388,0.0,-0.2441406100988388,-0.0128173828125,-0.0159912109375,0.989013671875
1721179455.181,311,311,310,311,310,312,310,310,310,311,311,312,311,311,311,311,311,312,311,311,311,313,311,313,311,18.0,-35.0,29.0,-0.0610351525247097,0.0,-0.2441406100988388,-0.01318359375,-0.0155029296875,0.9879150390625
1721179455.191,310,310,312,310,310,313,311,311,313,313,311,312,311,310,311,311,309,313,311,313,312,311,310,311,311,18.0,-35.0,29.0,0.0,-0.0610351525247097,-0.2441406100988388,-0.0142822265625,-0.0146484375,0.988037109375
1721179455.201,310,310,311,310,310,311,311,310,311,312,311,312,312,311,311,310,311,312,311,312,311,311,311,310,312,18.0,-35.0,29.0,0.0,-0.0610351525247097,-0.2441406100988388,-0.0145263671875,-0.0142822265625,0.988525390625
1721179455.211,310,310,310,310,310,311,311,311,311,311,311,312,311,311,312,312,311,311,312,311,312,311,313,312,311,18.0,-35.0,29.0,-0.1220703050494194,-0.0610351525247097,-0.2441406100988388,-0.0140380859375,-0.0145263671875,0.987060546875
1721179455.221,311,312,311,310,310,312,311,311,311,311,311,311,311,311,312,312,311,311,311,311,310,311,312,311,310,18.0,-35.0,29.0,-0.1831054538488388,-0.0610351525247097,-0.2441406100988388,-0.0140380859375,-0.014892578125,0.9862060546875
1721179455.231,310,311,310,310,310,311,313,311,312,311,311,310,312,311,311,312,310,311,311,310,310,311,311,310,311,17.0,-33.0,38.0,-0.2441406100988388,-0.0610351525247097,-0.2441406100988388,-0.013916015625,-0.0155029296875,0.9879150390625
1721179455.241,311,310,310,309,310,311,311,311,311,311,311,310,311,311,311,311,311,311,311,311,312,310,311,310,311,17.0,-33.0,38.0,-0.30517578125,-0.0610351525247097,-0.1831054538488388,-0.0133056640625,-0.015380859375,0.9888916015625
1721179455.251,310,310,310,310,311,313,311,312,312,312,311,311,312,310,311,311,312,311,311,313,311,311,311,312,311,17.0,-33.0,38.0,-0.30517578125,-0.0610351525247097,-0.1831054538488388,-0.01318359375,-0.0150146484375,0.989013671875
1721179455.261,310,310,310,310,310,310,310,313,310,311,311,311,311,311,311,310,312,311,313,311,311,311,311,311,310,17.0,-33.0,38.0,-0.2441406100988388,-0.0610351525247097,-0.2441406100988388,-0.013427734375,-0.01513671875,0.9892578125
1721179455.271,310,311,311,310,310,311,310,311,311,311,310,311,312,312,311,311,311,311,312,313,313,312,313,311,310,17.0,-33.0,38.0,0.0,-0.0610351525247097,-0.2441406100988388,-0.0135498046875,-0.0150146484375,0.9886474609375
1721179455.281,311,310,311,309,311,312,311,310,311,312,312,311,311,310,313,312,312,311,310,310,313,313,311,313,311,17.0,-33.0,38.0,0.1220703050494194,-0.0610351525247097,-0.2441406100988388,-0.0137939453125,-0.0146484375,0.98681640625
1721179455.291,308,310,310,311,311,311,311,312,312,311,311,311,311,312,311,311,310,312,310,312,311,311,311,311,312,17.0,-33.0,38.0,0.1220703050494194,-0.0610351525247097,-0.2441406100988388,-0.01416015625,-0.0146484375,0.9859619140625
1721179455.301,311,311,310,310,311,311,311,311,311,311,311,310,312,310,311,311,312,311,311,310,311,311,311,312,313,17.0,-33.0,38.0,-0.0610351525247097,-0.1220703050494194,-0.2441406100988388,-0.013916015625,-0.0146484375,0.9862060546875
1721179455.311,310,313,310,311,313,312,312,311,310,312,313,311,312,311,311,311,310,311,311,312,311,311,311,313,311,17.0,-33.0,38.0,-0.30517578125,-0.1831054538488388,-0.2441406100988388,-0.0137939453125,-0.0147705078125,0.98681640625
1721179455.321,311,311,309,311,310,313,311,311,311,311,311,304,313,310,311,311,312,313,311,312,311,313,313,309,311,17.0,-33.0,38.0,-0.4882812201976776,-0.1220703050494194,-0.1831054538488388,-0.01416015625,-0.0155029296875,0.988525390625
1721179455.331,310,311,310,310,311,312,311,311,310,312,312,310,311,312,312,313,312,312,311,311,311,311,311,312,312,18.0,-35.0,29.0,-0.3662109076976776,0.0,-0.1831054538488388,-0.01416015625,-0.015625,0.98974609375
1721179455.341,310,310,310,310,311,311,311,312,310,310,311,313,311,311,312,311,311,311,311,311,311,311,312,310,311,18.0,-35.0,29.0,-0.0610351525247097,0.0,-0.2441406100988388,-0.013916015625,-0.0152587890625,0.98974609375
1721179455.352,311,311,310,310,310,311,311,312,311,312,313,311,311,312,310,311,311,311,311,312,313,310,311,311,311,18.0,-35.0,29.0,0.0610351525247097,-0.0610351525247097,-0.30517578125,-0.0137939453125,-0.0152587890625,0.9891357421875
1721179455.361,310,310,310,309,311,311,311,311,310,311,311,312,312,311,311,312,313,310,311,311,311,311,313,312,311,18.0,-35.0,29.0,0.0,-0.0610351525247097,-0.30517578125,-0.01416015625,-0.0157470703125,0.98876953125
1721179455.371,310,311,310,311,311,311,312,311,312,311,311,311,311,309,311,311,311,310,313,313,311,311,311,311,313,18.0,-35.0,29.0,0.0,-0.0610351525247097,-0.30517578125,-0.0146484375,-0.015869140625,0.9876708984375
1721179455.381,309,310,310,310,311,312,311,313,311,313,312,313,311,311,311,311,312,312,313,313,311,311,311,311,311,18.0,-35.0,29.0,0.1220703050494194,-0.0610351525247097,-0.2441406100988388,-0.0146484375,-0.015380859375,0.9864501953125
1721179455.391,311,310,310,310,311,310,311,310,311,311,312,311,310,310,311,311,311,311,312,311,311,313,311,311,311,18.0,-35.0,29.0,0.1220703050494194,-0.0610351525247097,-0.2441406100988388,-0.0145263671875,-0.0145263671875,0.9869384765625
1721179455.401,312,310,310,311,310,311,310,311,313,312,311,311,311,311,311,312,312,312,312,313,311,312,311,311,311,18.0,-35.0,29.0,-0.0610351525247097,-0.0610351525247097,-0.2441406100988388,-0.0146484375,-0.0133056640625,0.98779296875
1721179455.411,310,310,311,310,310,311,311,313,311,312,311,311,311,311,313,312,311,311,313,311,310,312,311,311,311,18.0,-35.0,29.0,-0.4272460639476776,-0.0610351525247097,-0.30517578125,-0.01416015625,-0.0135498046875,0.988525390625
1721179455.421,310,310,310,310,310,311,311,311,311,311,310,311,310,310,312,311,311,311,310,310,310,311,311,311,311,17.0,-34.0,33.0,-0.6103515625,-0.0610351525247097,-0.30517578125,-0.013916015625,-0.01513671875,0.988525390625
1721179455.431,308,311,311,311,309,311,311,310,310,312,313,311,311,310,311,314,311,311,311,311,311,311,310,310,311,17.0,-34.0,33.0,-0.4272460639476776,-0.0610351525247097,-0.2441406100988388,-0.0145263671875,-0.015869140625,0.987548828125
1721179455.441,310,310,311,310,311,310,311,311,312,310,311,311,312,311,311,313,311,311,311,311,311,312,311,311,311,17.0,-34.0,33.0,-0.1831054538488388,0.0,-0.2441406100988388,-0.0145263671875,-0.015380859375,0.9879150390625
1721179455.451,310,311,309,310,312,312,311,311,311,311,311,311,310,311,311,311,310,311,310,311,313,312,311,311,312,17.0,-34.0,33.0,0.1220703050494194,-0.0610351525247097,-0.2441406100988388,-0.014404296875,-0.0145263671875,0.9884033203125
1721179455.461,309,311,311,311,311,310,310,311,311,312,311,310,310,311,311,311,311,311,312,311,311,311,310,310,312,17.0,-34.0,33.0,0.2441406100988388,-0.0610351525247097,-0.2441406100988388,-0.0145263671875,-0.0142822265625,0.987060546875
1721179455.471,310,310,310,311,310,311,311,313,312,311,311,311,311,311,310,311,312,313,311,311,310,313,311,312,313,17.0,-34.0,33.0,0.1220703050494194,-0.0610351525247097,-0.2441406100988388,-0.014404296875,-0.013916015625,0.9862060546875
1721179455.481,310,311,310,311,311,311,313,310,311,311,311,311,310,312,311,311,310,313,311,311,311,311,312,311,311,17.0,-34.0,33.0,-0.0610351525247097,-0.1220703050494194,-0.2441406100988388,-0.0140380859375,-0.013916015625,0.987548828125
1721179455.491,310,310,310,311,310,311,311,310,310,313,312,311,311,310,311,311,311,311,311,311,312,311,311,311,312,17.0,-34.0,33.0,-0.3662109076976776,-0.1220703050494194,-0.2441406100988388,-0.01416015625,-0.014892578125,0.98828125
1721179455.501,310,310,311,310,311,310,311,311,313,311,311,310,311,311,310,311,310,312,310,311,311,311,312,311,311,17.0,-34.0,33.0,-0.4882812201976776,-0.1220703050494194,-0.2441406100988388,-0.0146484375,-0.0155029296875,0.9884033203125
1721179455.511,310,310,310,310,311,310,312,311,311,311,311,311,311,312,312,312,312,311,313,311,311,311,312,311,311,17.0,-34.0,33.0,-0.30517578125,-0.0610351525247097,-0.2441406100988388,-0.014892578125,-0.0155029296875,0.98974609375
1721179455.521,310,311,311,311,311,311,310,310,312,311,311,311,312,311,311,311,311,311,312,312,310,312,311,311,313,17.0,-34.0,33.0,0.0610351525247097,-0.0610351525247097,-0.2441406100988388,-0.0147705078125,-0.014892578125,0.9888916015625
1721179455.531,310,311,310,310,310,311,312,311,312,310,311,311,311,311,311,312,312,311,310,311,311,312,311,311,311,18.0,-33.0,36.0,0.2441406100988388,-0.0610351525247097,-0.2441406100988388,-0.0142822265625,-0.0142822265625,0.9874267578125
1721179455.541,310,311,310,310,311,310,312,311,311,312,311,311,311,310,310,311,311,310,312,311,312,311,312,313,311,18.0,-33.0,36.0,0.1220703050494194,-0.0610351525247097,-0.2441406100988388,-0.0147705078125,-0.014404296875,0.988037109375
1721179455.551,310,312,311,310,311,311,311,311,311,311,311,312,311,311,310,311,312,311,311,312,312,311,310,310,312,18.0,-33.0,36.0,-0.1831054538488388,-0.0610351525247097,-0.2441406100988388,-0.0152587890625,-0.0147705078125,0.98828125
1721179455.561,310,310,310,310,310,312,312,312,310,311,311,311,313,311,311,313,311,311,312,313,311,312,312,311,311,18.0,-33.0,36.0,-0.2441406100988388,-0.0610351525247097,-0.2441406100988388,-0.014892578125,-0.015380859375,0.9876708984375
1721179455.571,310,310,310,311,310,311,311,311,312,311,312,313,311,311,311,312,311,310,313,310,311,313,312,311,313,18.0,-33.0,36.0,-0.1220703050494194,-0.0610351525247097,-0.2441406100988388,-0.0152587890625,-0.0147705078125,0.98779296875
1721179455.581,311,311,311,310,310,311,311,311,310,311,311,312,310,312,312,311,310,311,311,312,310,311,310,311,311,18.0,-33.0,36.0,0.0,-0.0610351525247097,-0.2441406100988388,-0.015625,-0.01416015625,0.98779296875
1721179455.591,311,311,311,310,310,310,311,311,313,311,311,312,312,313,312,311,311,313,312,311,310,311,311,313,311,18.0,-33.0,36.0,-0.1831054538488388,-0.0610351525247097,-0.2441406100988388,-0.0152587890625,-0.0142822265625,0.9866943359375
1721179455.601,310,310,311,311,311,311,312,311,311,311,313,311,312,311,311,311,311,311,309,313,311,312,312,311,311,18.0,-33.0,36.0,-0.4272460639476776,-0.0610351525247097,-0.2441406100988388,-0.0145263671875,-0.0150146484375,0.9876708984375
1721179455.611,310,311,310,310,311,311,312,311,311,310,311,312,312,311,311,313,311,313,313,311,311,311,312,312,312,18.0,-33.0,36.0,-0.54931640625,-0.0610351525247097,-0.1831054538488388,-0.0140380859375,-0.015625,0.98974609375
1721179455.621,310,311,311,311,311,311,311,311,310,312,310,312,311,311,311,312,311,311,311,311,311,312,311,312,311,18.0,-33.0,36.0,-0.30517578125,-0.0610351525247097,-0.1831054538488388,-0.0137939453125,-0.0150146484375,0.9886474609375
1721179455.631,310,311,310,311,310,311,311,311,312,311,311,311,311,311,311,311,312,310,313,311,311,311,311,311,311,18.0,-33.0,35.0,0.1220703050494194,-0.0610351525247097,-0.2441406100988388,-0.01416015625,-0.0142822265625,0.9874267578125
1721179455.641,310,300,310,310,310,311,313,312,311,311,311,310,311,311,312,311,313,311,311,313,310,313,310,313,313,18.0,-33.0,35.0,0.2441406100988388,-0.0610351525247097,-0.2441406100988388,-0.0142822265625,-0.014404296875,0.9879150390625
1721179455.651,311,311,312,311,310,311,311,311,311,311,311,313,311,311,312,313,310,311,313,312,311,310,311,311,312,18.0,-33.0,35.0,0.1220703050494194,-0.0610351525247097,-0.1831054538488388,-0.0142822265625,-0.0147705078125,0.9876708984375
1721179455.661,310,310,311,309,310,312,311,311,311,311,310,312,311,311,311,311,311,312,310,311,312,311,312,312,311,18.0,-33.0,35.0,-0.1220703050494194,-0.1220703050494194,-0.1831054538488388,-0.014892578125,-0.0146484375,0.98681640625
1721179455.671,311,310,311,311,311,311,312,311,310,311,311,311,310,312,311,311,310,312,310,313,312,312,310,311,311,18.0,-33.0,35.0,-0.2441406100988388,-0.1831054538488388,-0.1831054538488388,-0.014892578125,-0.0147705078125,0.987548828125
1721179455.681,311,311,310,311,310,310,313,311,311,311,311,311,311,311,312,311,313,311,310,313,310,311,311,311,312,18.0,-33.0,35.0,-0.30517578125,-0.1220703050494194,-0.1831054538488388,-0.01416015625,-0.0155029296875,0.9886474609375
1721179455.691,311,310,311,311,311,311,312,311,311,311,310,311,310,310,311,312,311,311,310,311,311,311,313,312,311,18.0,-33.0,35.0,-0.1831054538488388,-0.1220703050494194,-0.1831054538488388,-0.0137939453125,-0.01513671875,0.9881591796875
1721179455.701,311,310,310,310,310,313,311,311,311,312,311,312,310,310,311,311,313,310,311,311,311,313,311,310,311,18.0,-33.0,35.0,-0.0610351525247097,-0.0610351525247097,-0.1831054538488388,-0.0140380859375,-0.0140380859375,0.9873046875
1721179455.711,311,311,310,311,310,311,312,311,311,311,312,313,311,311,311,312,310,312,311,311,311,313,311,312,311,18.0,-33.0,35.0,-0.0610351525247097,-0.0610351525247097,-0.2441406100988388,-0.0140380859375,-0.013427734375,0.9873046875
1721179455.721,310,310,310,310,310,311,311,310,311,311,311,311,311,311,312,311,312,313,310,311,311,313,311,311,311,18.0,-33.0,35.0,-0.1831054538488388,-0.0610351525247097,-0.2441406100988388,-0.013671875,-0.0140380859375,0.9869384765625
1721179455.731,311,310,310,311,311,311,311,311,312,311,311,311,311,311,311,311,311,311,312,311,311,310,311,310,311,18.0,-34.0,36.0,-0.30517578125,-0.0610351525247097,-0.30517578125,-0.0135498046875,-0.01513671875,0.986572265625
1721179455.741,311,311,310,309,310,311,311,311,310,311,311,310,311,312,310,311,311,311,311,311,310,312,311,312,311,18.0,-34.0,36.0,-0.30517578125,-0.0610351525247097,-0.30517578125,-0.0133056640625,-0.0159912109375,0.9874267578125
1721179455.751,310,310,310,311,311,311,312,311,311,311,312,311,311,310,310,311,312,310,311,311,312,311,312,311,313,18.0,-34.0,36.0,-0.1831054538488388,-0.0610351525247097,-0.30517578125,-0.01318359375,-0.0159912109375,0.9879150390625
1721179455.761,310,311,310,311,311,311,311,310,310,312,311,311,310,311,311,313,311,312,311,312,311,312,311,311,310,18.0,-34.0,36.0,0.0610351525247097,-0.0610351525247097,-0.2441406100988388,-0.012939453125,-0.0150146484375,0.98828125
1721179455.771,308,310,311,310,310,311,311,311,311,311,312,311,311,312,312,311,311,311,312,311,311,312,312,311,310,18.0,-34.0,36.0,0.1220703050494194,-0.0610351525247097,-0.30517578125,-0.014404296875,-0.0145263671875,0.9893798828125
1721179455.781,310,311,310,311,311,311,311,310,310,312,313,312,310,310,311,312,311,310,311,311,311,312,313,312,311,18.0,-34.0,36.0,0.0,-0.1220703050494194,-0.2441406100988388,-0.0164794921875,-0.013671875,0.9891357421875
1721179455.791,311,309,308,310,311,310,312,313,313,311,311,311,311,311,311,311,312,311,312,311,311,311,311,311,313,18.0,-34.0,36.0,-0.1831054538488388,-0.1220703050494194,-0.1831054538488388,-0.0145263671875,-0.0142822265625,0.986083984375
1721179455.801,310,311,311,311,310,311,311,312,313,310,311,312,311,312,311,311,312,312,311,311,310,310,312,311,311,18.0,-34.0,36.0,-0.1831054538488388,-0.0610351525247097,-0.1831054538488388,-0.0128173828125,-0.0157470703125,0.9849853515625
1721179455.811,310,311,310,311,313,311,313,311,310,311,312,311,311,308,310,313,311,310,311,311,311,311,311,311,312,18.0,-34.0,36.0,-0.1220703050494194,-0.0610351525247097,-0.1831054538488388,-0.01416015625,-0.0146484375,0.987548828125
1721179455.821,310,311,310,310,300,302,311,313,311,311,311,311,311,312,311,311,311,313,311,311,311,312,311,311,311,18.0,-34.0,36.0,-0.1220703050494194,-0.0610351525247097,-0.1831054538488388,-0.014892578125,-0.0137939453125,0.9886474609375
1721179455.831,310,311,311,310,310,310,311,312,313,311,311,311,310,312,311,310,310,312,311,311,311,312,311,311,311,18.0,-31.0,31.0,-0.2441406100988388,-0.0610351525247097,-0.2441406100988388,-0.0146484375,-0.0137939453125,0.9881591796875
1721179455.841,311,311,310,310,310,312,311,311,312,311,310,311,310,311,311,312,311,312,313,312,311,311,312,311,312,18.0,-31.0,31.0,-0.30517578125,-0.0610351525247097,-0.2441406100988388,-0.0140380859375,-0.01416015625,0.9884033203125
1721179455.851,311,310,310,310,311,311,312,311,311,310,310,310,311,304,311,311,312,311,312,311,311,312,310,311,312,18.0,-31.0,31.0,-0.30517578125,-0.1220703050494194,-0.2441406100988388,-0.0133056640625,-0.01513671875,0.9886474609375
1721179455.861,311,310,310,310,310,311,311,310,311,311,310,311,310,313,312,311,311,311,311,312,311,312,312,311,311,18.0,-31.0,31.0,-0.1220703050494194,-0.1220703050494194,-0.2441406100988388,-0.0133056640625,-0.0157470703125,0.9876708984375
1721179455.871,310,311,310,310,310,312,311,311,311,310,311,312,310,311,310,313,313,310,311,311,312,312,311,311,311,18.0,-31.0,31.0,0.0,-0.0610351525247097,-0.2441406100988388,-0.013671875,-0.0157470703125,0.9864501953125
1721179455.881,310,311,311,310,310,312,311,312,312,311,310,311,311,311,311,312,313,311,311,311,312,311,311,310,311,18.0,-31.0,31.0,0.0,-0.0610351525247097,-0.2441406100988388,-0.0137939453125,-0.0150146484375,0.9873046875
1721179455.891,310,311,310,310,311,311,311,312,311,313,312,311,311,311,311,311,311,311,311,311,310,310,311,311,311,18.0,-31.0,31.0,-0.1220703050494194,-0.0610351525247097,-0.2441406100988388,-0.0140380859375,-0.014892578125,0.988525390625
1721179455.901,311,312,311,311,310,311,311,310,312,311,312,311,311,311,311,311,312,310,312,312,312,311,313,313,311,18.0,-31.0,31.0,-0.2441406100988388,-0.0610351525247097,-0.2441406100988388,-0.01416015625,-0.0152587890625,0.988525390625
1721179455.911,310,310,310,310,311,311,312,311,313,311,311,311,312,313,311,311,312,313,311,312,311,311,311,313,312,18.0,-31.0,31.0,-0.2441406100988388,-0.1220703050494194,-0.2441406100988388,-0.0137939453125,-0.0150146484375,0.9886474609375
1721179455.921,310,310,311,308,310,310,313,313,311,312,311,311,312,310,311,311,311,313,311,310,310,310,311,310,310,18.0,-31.0,31.0,-0.1220703050494194,-0.1220703050494194,-0.2441406100988388,-0.013427734375,-0.015380859375,0.989013671875
1721179455.931,308,310,310,310,310,311,311,311,311,312,311,312,312,310,311,312,312,311,309,311,313,311,310,311,312,15.0,-32.0,28.0,0.0,-0.1220703050494194,-0.2441406100988388,-0.013671875,-0.0150146484375,0.988525390625
1721179455.941,311,309,311,310,310,311,311,312,312,311,311,311,311,312,311,312,311,311,312,313,311,312,311,312,311,15.0,-32.0,28.0,0.0,-0.0610351525247097,-0.2441406100988388,-0.0140380859375,-0.01416015625,0.987548828125
1721179455.951,308,310,311,310,310,312,311,311,311,311,311,311,310,311,311,311,311,311,311,311,310,311,311,312,312,15.0,-32.0,28.0,-0.1831054538488388,-0.0610351525247097,-0.2441406100988388,-0.01416015625,-0.0145263671875,0.9873046875
1721179455.961,310,310,310,310,311,313,311,312,311,311,312,311,311,311,311,311,310,312,311,311,310,310,311,311,311,15.0,-32.0,28.0,-0.3662109076976776,-0.0610351525247097,-0.2441406100988388,-0.0140380859375,-0.0152587890625,0.9874267578125
1721179455.971,310,310,311,310,311,311,311,311,312,312,310,311,311,310,311,312,310,312,312,311,311,311,311,310,312,15.0,-32.0,28.0,-0.30517578125,-0.0610351525247097,-0.1831054538488388,-0.0140380859375,-0.015380859375,0.987060546875
1721179455.981,311,310,310,309,310,311,310,313,311,310,310,311,311,311,311,311,310,311,311,312,311,311,311,310,312,15.0,-32.0,28.0,-0.1220703050494194,-0.0610351525247097,-0.1831054538488388,-0.013916015625,-0.015380859375,0.9874267578125
1721179455.991,310,310,310,310,310,310,311,310,312,311,311,311,310,313,312,311,312,312,310,311,311,312,311,312,312,15.0,-32.0,28.0,-0.0610351525247097,-0.0610351525247097,-0.2441406100988388,-0.013671875,-0.015625,0.988525390625
1721179456.001,310,311,310,311,310,311,311,310,311,312,311,310,311,310,312,311,311,311,312,312,311,311,310,311,311,15.0,-32.0,28.0,0.0,-0.0610351525247097,-0.2441406100988388,-0.0140380859375,-0.01513671875,0.9876708984375
1721179456.011,310,310,311,311,310,311,311,310,312,312,311,311,311,311,312,311,311,311,312,311,311,313,311,311,312,15.0,-32.0,28.0,-0.0610351525247097,-0.0610351525247097,-0.2441406100988388,-0.0146484375,-0.0146484375,0.9871826171875
1721179456.021,310,311,310,310,310,313,312,310,310,311,310,311,310,311,311,311,312,310,315,310,311,311,311,311,311,15.0,-32.0,28.0,-0.1220703050494194,-0.1220703050494194,-0.2441406100988388,-0.0147705078125,-0.01513671875,0.98828125
1721179456.031,311,311,310,310,310,313,310,310,311,311,310,311,312,311,313,312,311,311,310,313,313,312,312,312,311,17.0,-33.0,31.0,-0.2441406100988388,-0.1220703050494194,-0.2441406100988388,-0.0140380859375,-0.015380859375,0.987548828125
1721179456.041,310,310,311,310,311,311,313,311,312,311,311,311,311,311,313,311,311,312,310,311,311,311,311,311,312,17.0,-33.0,31.0,-0.1831054538488388,-0.1220703050494194,-0.2441406100988388,-0.013671875,-0.0155029296875,0.9873046875
1721179456.051,310,310,310,311,310,312,311,311,311,311,312,312,311,312,311,311,310,311,311,311,310,311,313,311,311,17.0,-33.0,31.0,0.0,-0.1220703050494194,-0.2441406100988388,-0.0135498046875,-0.0147705078125,0.988525390625
1721179456.061,310,310,311,310,310,311,310,311,313,310,311,311,311,312,311,311,312,312,311,312,311,311,311,311,312,17.0,-33.0,31.0,0.0610351525247097,-0.0610351525247097,-0.2441406100988388,-0.012939453125,-0.013916015625,0.9886474609375
1721179456.071,311,310,311,310,311,313,310,310,312,311,311,313,313,311,311,311,311,313,311,311,310,311,311,311,311,17.0,-33.0,31.0,-0.1220703050494194,-0.0610351525247097,-0.1831054538488388,-0.0130615234375,-0.0140380859375,0.9884033203125
1721179456.081,310,310,311,311,311,311,299,311,311,311,311,313,310,311,311,311,311,311,313,311,311,312,311,311,311,17.0,-33.0,31.0,-0.30517578125,-0.0610351525247097,-0.2441406100988388,-0.0142822265625,-0.0150146484375,0.989501953125
1721179456.091,310,313,310,310,311,311,312,312,312,310,311,311,311,310,311,311,313,310,311,312,312,311,311,311,313,17.0,-33.0,31.0,-0.2441406100988388,-0.0610351525247097,-0.2441406100988388,-0.0145263671875,-0.0152587890625,0.9896240234375
1721179456.101,310,311,310,310,310,313,312,311,312,311,312,311,311,311,311,311,311,311,311,311,311,311,311,312,311,17.0,-33.0,31.0,-0.1220703050494194,-0.1220703050494194,-0.30517578125,-0.0137939453125,-0.014404296875,0.9871826171875
1721179456.111,310,308,310,310,310,311,311,311,311,311,311,311,311,311,310,311,312,311,310,312,312,311,312,312,313,17.0,-33.0,31.0,-0.0610351525247097,-0.1220703050494194,-0.30517578125,-0.013427734375,-0.014404296875,0.9853515625
1721179456.121,310,310,311,311,310,311,311,311,311,311,311,311,312,310,312,310,312,311,312,311,311,311,311,310,311,17.0,-33.0,31.0,-0.1220703050494194,-0.1220703050494194,-0.2441406100988388,-0.013671875,-0.014404296875,0.986328125
1721179456.131,309,310,310,310,310,311,311,312,311,310,311,311,310,312,311,311,311,311,311,311,310,311,310,312,311,18.0,-34.0,32.0,-0.1831054538488388,-0.1220703050494194,-0.2441406100988388,-0.0137939453125,-0.01416015625,0.98779296875
1721179456.141,311,310,310,310,311,312,310,310,310,312,313,311,311,311,312,311,313,312,310,310,311,311,311,313,311,18.0,-34.0,32.0,-0.1831054538488388,-0.0610351525247097,-0.2441406100988388,-0.013671875,-0.0142822265625,0.9881591796875
1721179456.151,311,311,311,310,310,311,310,312,312,311,311,311,310,311,311,311,311,311,311,312,312,312,311,311,313,18.0,-34.0,32.0,-0.1831054538488388,-0.0610351525247097,-0.2441406100988388,-0.0133056640625,-0.0147705078125,0.9881591796875
1721179456.161,312,311,311,309,311,311,311,312,311,312,312,311,312,313,310,312,311,311,311,313,311,311,312,311,310,18.0,-34.0,32.0,-0.1831054538488388,-0.0610351525247097,-0.2441406100988388,-0.0130615234375,-0.0150146484375,0.988037109375
1721179456.171,310,310,310,310,311,311,311,310,311,312,313,313,312,311,311,313,312,311,312,311,311,312,312,312,311,18.0,-34.0,32.0,-0.1220703050494194,-0.1220703050494194,-0.2441406100988388,-0.013671875,-0.0150146484375,0.98779296875
1721179456.181,308,312,310,310,311,311,312,310,311,311,311,309,311,310,310,310,312,311,311,311,312,312,312,311,311,18.0,-34.0,32.0,0.0,-0.0610351525247097,-0.1831054538488388,-0.0142822265625,-0.0146484375,0.9873046875
1721179456.191,311,313,310,310,310,313,311,311,312,311,311,311,311,311,311,311,311,311,312,311,311,311,311,312,312,18.0,-34.0,32.0,-0.0610351525247097,-0.0610351525247097,-0.1831054538488388,-0.014404296875,-0.0142822265625,0.98681640625
1721179456.201,310,311,310,309,310,313,312,311,311,312,312,311,311,309,310,311,311,311,311,311,311,312,311,312,311,18.0,-34.0,32.0,-0.1831054538488388,-0.1220703050494194,-0.2441406100988388,-0.0142822265625,-0.0145263671875,0.9874267578125
1721179456.211,310,310,311,310,311,313,310,312,313,311,311,311,311,311,311,311,313,311,312,312,310,312,311,311,311,18.0,-34.0,32.0,-0.30517578125,-0.1220703050494194,-0.2441406100988388,-0.01416015625,-0.0152587890625,0.9886474609375
1721179456.221,310,310,311,310,310,311,311,310,311,311,311,310,311,311,311,309,310,311,311,312,310,312,311,311,311,18.0,-34.0,32.0,-0.1831054538488388,-0.0610351525247097,-0.1831054538488388,-0.0140380859375,-0.015625,0.98828125
1721179456.231,310,311,311,310,311,311,311,311,310,311,311,311,312,310,312,313,311,311,312,312,311,311,311,313,311,20.0,-35.0,32.0,-0.0610351525247097,-0.0610351525247097,-0.1831054538488388,-0.0145263671875,-0.0147705078125,0.9874267578125
1721179456.241,310,311,310,310,311,311,311,311,311,311,311,310,312,311,311,310,311,313,311,311,311,312,311,311,311,20.0,-35.0,32.0,-0.0610351525247097,-0.0610351525247097,-0.1831054538488388,-0.0150146484375,-0.0140380859375,0.9873046875
1721179456.251,310,310,310,308,310,313,311,310,312,311,311,312,311,312,311,313,311,311,313,313,310,313,311,312,311,20.0,-35.0,32.0,-0.2441406100988388,-0.0610351525247097,-0.1831054538488388,-0.014892578125,-0.0146484375,0.9874267578125
1721179456.261,310,311,310,311,312,311,311,310,311,311,311,311,311,311,311,312,311,312,312,311,311,312,311,313,312,20.0,-35.0,32.0,-0.3662109076976776,-0.0610351525247097,-0.2441406100988388,-0.0135498046875,-0.015625,0.987548828125
1721179456.271,312,311,311,309,310,311,311,311,312,311,311,312,312,312,310,311,313,310,313,311,311,311,311,310,310,20.0,-35.0,32.0,-0.2441406100988388,-0.0610351525247097,-0.2441406100988388,-0.0128173828125,-0.016357421875,0.9876708984375
1721179456.281,311,311,310,310,310,311,311,311,311,312,310,311,313,312,311,310,311,311,311,311,310,313,311,311,310,20.0,-35.0,32.0,-0.0610351525247097,-0.1220703050494194,-0.2441406100988388,-0.01318359375,-0.0162353515625,0.9876708984375
1721179456.291,311,310,311,311,310,311,310,313,310,311,310,311,311,310,312,311,311,312,311,311,311,311,313,313,312,20.0,-35.0,32.0,0.0610351525247097,-0.1220703050494194,-0.2441406100988388,-0.013916015625,-0.01513671875,0.9881591796875
1721179456.301,311,311,311,310,311,311,311,312,311,310,312,311,310,312,311,312,313,311,311,312,310,311,311,311,311,20.0,-35.0,32.0,0.0610351525247097,-0.0610351525247097,-0.2441406100988388,-0.0147705078125,-0.0137939453125,0.9879150390625
1721179456.311,310,311,310,310,311,310,312,311,312,311,310,312,311,312,311,311,311,313,311,311,311,313,311,312,312,20.0,-35.0,32.0,-0.1220703050494194,-0.0610351525247097,-0.2441406100988388,-0.0147705078125,-0.0140380859375,0.987060546875
1721179456.321,310,310,310,312,310,310,312,311,311,312,312,311,311,311,311,312,311,311,310,311,312,310,311,312,311,20.0,-35.0,32.0,-0.3662109076976776,-0.0610351525247097,-0.2441406100988388,-0.0142822265625,-0.0150146484375,0.98681640625
1721179456.331,310,313,310,309,310,311,311,311,312,311,312,311,310,311,311,312,311,311,311,312,313,311,310,311,312,19.0,-33.0,34.0,-0.4272460639476776,-0.0610351525247097,-0.1831054538488388,-0.013916015625,-0.01611328125,0.98779296875
1721179456.341,310,310,310,310,309,311,310,311,311,311,310,312,311,312,311,312,310,311,312,311,312,311,311,313,311,19.0,-33.0,34.0,-0.4272460639476776,-0.0610351525247097,-0.1831054538488388,-0.0140380859375,-0.015869140625,0.9884033203125
1721179456.351,311,310,311,310,310,311,311,310,312,312,311,313,312,311,312,310,312,310,311,313,312,311,310,311,311,19.0,-33.0,34.0,0.1220703050494194,-0.1220703050494194,-0.1831054538488388,-0.0147705078125,-0.014404296875,0.9874267578125
1721179456.361,311,310,310,309,310,311,312,311,311,312,310,312,311,310,312,311,312,312,311,311,311,311,310,312,311,19.0,-33.0,34.0,0.1220703050494194,-0.0610351525247097,-0.2441406100988388,-0.0147705078125,-0.0140380859375,0.9869384765625
1721179456.371,310,310,309,310,311,310,312,311,311,311,312,311,310,311,312,311,310,312,312,311,311,312,312,312,311,19.0,-33.0,34.0,0.1220703050494194,-0.0610351525247097,-0.2441406100988388,-0.0147705078125,-0.0152587890625,0.986572265625
1721179456.381,310,310,311,310,310,310,311,311,311,311,311,312,311,311,313,310,310,314,311,312,313,312,311,312,311,19.0,-33.0,34.0,-0.3662109076976776,-0.0610351525247097,-0.2441406100988388,-0.0152587890625,-0.0162353515625,0.9857177734375
1721179456.391,311,310,311,310,310,311,311,313,312,312,310,311,311,310,311,311,311,311,312,313,312,312,311,312,312,19.0,-33.0,34.0,-0.1831054538488388,-0.0610351525247097,-0.1831054538488388,-0.0150146484375,-0.015625,0.9864501953125
1721179456.401,310,311,311,310,310,311,311,311,311,311,311,311,311,311,311,311,311,311,312,311,311,311,312,311,311,19.0,-33.0,34.0,-0.1831054538488388,-0.0610351525247097,-0.1831054538488388,-0.0146484375,-0.0146484375,0.9871826171875
1721179456.411,308,310,310,310,310,311,311,312,311,313,311,310,311,311,311,311,311,312,311,310,310,312,311,311,311,19.0,-33.0,34.0,-0.0610351525247097,-0.1220703050494194,-0.2441406100988388,-0.0146484375,-0.0146484375,0.986328125
1721179456.421,310,310,310,311,310,311,312,312,311,311,311,310,311,311,312,312,311,311,310,312,311,310,310,311,311,19.0,-33.0,34.0,-0.2441406100988388,-0.0610351525247097,-0.2441406100988388,-0.0146484375,-0.0146484375,0.986328125
1721179456.431,310,310,311,310,311,312,311,311,313,311,313,313,310,312,311,312,311,313,311,311,311,312,311,312,313,18.0,-33.0,35.0,-0.2441406100988388,-0.0610351525247097,-0.2441406100988388,-0.0146484375,-0.0152587890625,0.9892578125
1721179456.441,308,310,311,311,310,310,312,310,311,311,311,313,310,312,311,312,311,311,311,310,311,313,311,311,311,18.0,-33.0,35.0,-0.2441406100988388,-0.0610351525247097,-0.2441406100988388,-0.0142822265625,-0.0150146484375,0.9892578125
1721179456.451,311,310,310,310,311,311,310,310,311,311,311,311,311,311,311,312,312,310,312,311,311,311,311,311,311,18.0,-33.0,35.0,-0.1220703050494194,-0.0610351525247097,-0.2441406100988388,-0.0142822265625,-0.0150146484375,0.9892578125
1721179456.461,311,311,310,309,309,311,311,312,310,313,311,311,311,310,310,313,310,311,310,312,310,311,312,311,311,18.0,-33.0,35.0,-0.1220703050494194,-0.0610351525247097,-0.2441406100988388,-0.013427734375,-0.015380859375,0.9888916015625
1721179456.471,310,310,310,311,311,311,311,311,311,312,311,310,311,309,313,311,311,311,311,310,311,312,312,313,313,18.0,-33.0,35.0,0.1220703050494194,-0.1220703050494194,-0.2441406100988388,-0.0137939453125,-0.014892578125,0.988037109375
1721179456.481,310,311,310,310,310,310,311,311,310,312,313,311,311,314,313,312,311,311,312,311,311,310,311,310,312,18.0,-33.0,35.0,0.1220703050494194,-0.1220703050494194,-0.2441406100988388,-0.0137939453125,-0.014892578125,0.988037109375
1721179456.491,310,310,311,311,311,311,311,312,311,311,311,312,311,311,311,312,311,311,311,313,313,311,311,312,311,18.0,-33.0,35.0,0.1220703050494194,-0.1220703050494194,-0.2441406100988388,-0.013671875,-0.0145263671875,0.9866943359375
1721179456.501,308,310,310,311,311,311,312,310,310,312,311,311,311,311,310,311,312,311,311,311,311,311,311,311,311,18.0,-33.0,35.0,-0.4882812201976776,-0.1220703050494194,-0.1831054538488388,-0.0130615234375,-0.0155029296875,0.98828125
1721179456.511,310,310,311,310,310,310,311,311,311,311,310,310,311,312,312,313,312,310,311,313,311,311,310,311,312,18.0,-33.0,35.0,-0.4882812201976776,-0.0610351525247097,-0.1831054538488388,-0.0130615234375,-0.0155029296875,0.98828125
1721179456.521,310,310,310,309,311,311,312,310,311,312,311,311,312,311,312,311,310,311,312,313,311,311,311,311,311,18.0,-33.0,35.0,-0.4882812201976776,-0.0610351525247097,-0.1831054538488388,-0.0137939453125,-0.015380859375,0.98828125
1721179456.531,310,310,310,311,311,311,311,311,313,311,313,311,310,310,311,312,313,311,312,310,311,311,311,311,311,20.0,-33.0,35.0,-0.0610351525247097,-0.0610351525247097,-0.2441406100988388,-0.0145263671875,-0.014892578125,0.987548828125
1721179456.541,312,310,311,310,311,311,313,311,312,311,311,311,311,311,311,310,311,310,311,310,311,311,310,311,311,20.0,-33.0,35.0,0.0,-0.1220703050494194,-0.2441406100988388,-0.0145263671875,-0.014892578125,0.987548828125
1721179456.551,311,311,311,310,311,312,310,312,311,311,311,311,313,311,311,310,310,311,312,311,310,310,313,311,311,20.0,-33.0,35.0,0.0,-0.1220703050494194,-0.2441406100988388,-0.0140380859375,-0.01513671875,0.9862060546875
1721179456.561,310,311,311,310,311,311,311,311,312,312,312,311,311,310,312,310,312,310,312,311,311,310,311,311,311,20.0,-33.0,35.0,-0.1831054538488388,-0.0610351525247097,-0.2441406100988388,-0.0137939453125,-0.0152587890625,0.987548828125
1721179456.571,310,310,310,311,311,310,311,311,311,312,311,311,311,311,311,312,310,310,311,311,311,311,311,311,311,20.0,-33.0,35.0,-0.1220703050494194,-0.0610351525247097,-0.2441406100988388,-0.0137939453125,-0.0152587890625,0.987548828125
1721179456.581,311,310,310,311,310,313,310,311,311,313,311,311,311,311,311,311,311,312,312,311,311,311,310,311,313,20.0,-33.0,35.0,-0.1220703050494194,-0.0610351525247097,-0.2441406100988388,-0.0142822265625,-0.015380859375,0.9871826171875
1721179456.591,311,310,310,310,310,312,311,311,312,311,311,311,311,310,312,311,311,311,311,312,311,313,312,310,311,20.0,-33.0,35.0,-0.0610351525247097,-0.0610351525247097,-0.1831054538488388,-0.014404296875,-0.015380859375,0.987060546875
1721179456.601,311,310,310,310,309,312,311,311,311,311,311,311,311,310,311,311,312,313,310,312,311,311,311,313,311,20.0,-33.0,35.0,-0.1220703050494194,-0.1220703050494194,-0.2441406100988388,-0.014404296875,-0.015380859375,0.987060546875
1721179456.611,311,310,310,310,310,311,310,311,311,313,311,312,310,311,311,313,311,311,311,311,311,311,310,311,311,20.0,-33.0,35.0,-0.1220703050494194,-0.1220703050494194,-0.2441406100988388,-0.0137939453125,-0.0146484375,0.9873046875
1721179456.621,310,311,310,310,310,313,311,311,311,311,311,310,311,310,310,312,310,310,310,311,311,311,311,311,313,20.0,-33.0,35.0,-0.2441406100988388,-0.1220703050494194,-0.1831054538488388,-0.0137939453125,-0.0155029296875,0.9871826171875
1721179456.631,310,310,310,310,311,312,312,311,311,311,310,311,311,310,312,311,311,311,311,310,311,312,311,311,311,19.0,-32.0,33.0,-0.2441406100988388,-0.1220703050494194,-0.1831054538488388,-0.0137939453125,-0.0155029296875,0.9871826171875
1721179456.641,310,310,310,309,310,310,311,311,311,312,311,310,313,311,311,313,313,312,311,311,311,311,311,310,311,19.0,-32.0,33.0,-0.2441406100988388,-0.1220703050494194,-0.1831054538488388,-0.0140380859375,-0.015625,0.9869384765625
1721179456.651,310,310,310,310,310,311,310,311,312,311,311,311,311,311,311,311,312,311,311,311,313,312,311,311,311,19.0,-32.0,33.0,0.0610351525247097,-0.0610351525247097,-0.2441406100988388,-0.0146484375,-0.0145263671875,0.986572265625
1721179456.661,310,311,311,311,310,310,311,312,311,310,311,311,311,311,311,312,311,311,311,311,311,311,311,311,311,19.0,-32.0,33.0,-0.0610351525247097,-0.1220703050494194,-0.2441406100988388,-0.0146484375,-0.0145263671875,0.986572265625
1721179456.671,310,312,310,311,309,313,311,311,311,311,311,312,311,311,311,311,311,312,311,312,311,311,311,312,311,19.0,-32.0,33.0,-0.0610351525247097,-0.1220703050494194,-0.2441406100988388,-0.0137939453125,-0.0142822265625,0.9884033203125
1721179456.681,311,310,308,310,311,310,311,312,313,311,310,311,311,311,310,311,299,311,311,312,311,311,311,311,311,19.0,-32.0,33.0,-0.30517578125,-0.0610351525247097,-0.1831054538488388,-0.0137939453125,-0.0147705078125,0.98779296875
1721179456.691,310,309,311,310,311,311,311,311,312,311,311,311,311,311,312,311,313,311,311,311,311,311,310,312,311,19.0,-32.0,33.0,-0.2441406100988388,-0.0610351525247097,-0.1831054538488388,-0.0137939453125,-0.0147705078125,0.98779296875
1721179456.701,310,311,311,310,310,311,312,313,313,311,313,312,311,313,311,312,310,311,312,313,311,313,312,311,312,19.0,-32.0,33.0,-0.2441406100988388,-0.0610351525247097,-0.1831054538488388,-0.01416015625,-0.0152587890625,0.9854736328125
1721179456.711,310,311,310,310,311,310,313,310,311,311,311,311,312,310,311,313,311,310,313,311,311,312,311,311,311,19.0,-32.0,33.0,-0.1831054538488388,-0.0610351525247097,-0.2441406100988388,-0.01416015625,-0.015625,0.987548828125
1721179456.721,310,311,311,310,311,311,313,310,312,312,310,311,311,309,311,311,311,311,311,312,311,312,311,313,311,19.0,-32.0,33.0,-0.0610351525247097,-0.1220703050494194,-0.2441406100988388,-0.01416015625,-0.015625,0.987548828125
1721179456.731,311,311,311,310,310,312,311,311,312,311,311,310,311,311,311,311,310,312,311,312,312,313,313,310,311,19.0,-32.0,30.0,-0.0610351525247097,-0.1220703050494194,-0.2441406100988388,-0.013427734375,-0.0145263671875,0.9886474609375
1721179456.741,311,311,311,310,310,313,311,310,311,310,311,311,312,311,312,312,311,311,311,310,311,311,312,311,312,19.0,-32.0,30.0,0.0610351525247097,-0.0610351525247097,-0.2441406100988388,-0.01416015625,-0.01416015625,0.9873046875
1721179456.751,311,310,311,311,310,311,312,311,311,312,311,311,311,312,310,311,311,311,312,312,312,311,311,312,311,19.0,-32.0,30.0,-0.1220703050494194,-0.0610351525247097,-0.1831054538488388,-0.01416015625,-0.01416015625,0.9873046875
1721179456.761,310,311,311,310,311,313,311,311,311,311,312,312,311,311,311,311,311,311,311,311,311,312,311,312,312,19.0,-32.0,30.0,-0.1220703050494194,-0.0610351525247097,-0.1831054538488388,-0.014404296875,-0.0146484375,0.986572265625
1721179456.771,310,309,310,311,311,313,310,310,309,311,311,312,311,311,311,313,312,311,313,311,311,311,311,313,313,19.0,-32.0,30.0,-0.1831054538488388,-0.1220703050494194,-0.2441406100988388,-0.014892578125,-0.01513671875,0.987548828125
1721179456.781,310,310,311,308,312,311,311,311,310,311,313,312,311,310,311,310,311,311,312,311,311,312,311,310,312,19.0,-32.0,30.0,-0.1220703050494194,-0.1220703050494194,-0.2441406100988388,-0.014892578125,-0.01513671875,0.987548828125
1721179456.791,311,311,310,311,310,313,313,311,311,311,311,311,311,311,312,311,313,311,313,312,311,311,312,311,311,19.0,-32.0,30.0,-0.1220703050494194,-0.1220703050494194,-0.2441406100988388,-0.0145263671875,-0.0150146484375,0.98779296875
1721179456.801,310,300,311,310,311,311,313,311,312,311,311,311,311,312,311,312,312,310,311,311,312,312,311,312,311,19.0,-32.0,30.0,-0.2441406100988388,0.0,-0.2441406100988388,-0.0140380859375,-0.0150146484375,0.9888916015625
1721179456.811,311,310,312,311,313,310,311,311,311,312,311,310,311,313,312,310,310,312,312,311,311,310,311,311,310,19.0,-32.0,30.0,-0.1831054538488388,-0.0610351525247097,-0.2441406100988388,-0.0140380859375,-0.0150146484375,0.9888916015625
1721179456.821,309,311,310,311,310,311,312,311,313,312,311,311,311,311,310,310,313,312,312,310,313,311,311,311,311,19.0,-32.0,30.0,-0.1831054538488388,-0.0610351525247097,-0.2441406100988388,-0.014404296875,-0.01416015625,0.9886474609375
1721179456.831,311,311,311,309,310,311,311,312,312,311,312,311,311,312,311,313,311,311,312,310,311,311,313,310,311,20.0,-34.0,33.0,0.0,-0.1220703050494194,-0.2441406100988388,-0.0145263671875,-0.0145263671875,0.9874267578125
1721179456.841,311,313,311,309,310,312,312,311,310,311,311,311,310,309,310,311,311,311,312,312,310,311,311,310,310,20.0,-34.0,33.0,-0.0610351525247097,-0.1831054538488388,-0.2441406100988388,-0.0145263671875,-0.0145263671875,0.9874267578125
1721179456.851,311,311,311,310,310,313,313,311,311,313,311,311,311,312,311,312,311,312,313,311,313,311,311,311,311,20.0,-34.0,33.0,-0.0610351525247097,-0.1831054538488388,-0.2441406100988388,-0.01318359375,-0.0150146484375,0.9881591796875
1721179456.861,311,311,310,311,311,311,311,311,311,311,312,310,311,310,312,311,311,312,311,313,311,311,312,311,313,20.0,-34.0,33.0,-0.1831054538488388,-0.0610351525247097,-0.2441406100988388,-0.012451171875,-0.0145263671875,0.987060546875
1721179456.871,312,310,310,310,309,311,311,311,311,313,311,311,311,312,313,311,312,311,313,311,311,311,310,310,311,20.0,-34.0,33.0,-0.2441406100988388,-0.0610351525247097,-0.2441406100988388,-0.012451171875,-0.0145263671875,0.987060546875
1721179456.881,311,311,310,311,310,311,313,311,311,312,311,313,311,310,311,312,312,311,311,313,311,312,313,311,311,20.0,-34.0,33.0,-0.2441406100988388,-0.0610351525247097,-0.2441406100988388,-0.0130615234375,-0.0152587890625,0.9884033203125
1721179456.891,310,311,311,311,311,312,311,312,311,311,312,311,313,311,312,311,312,311,310,311,312,311,312,313,313,20.0,-34.0,33.0,-0.2441406100988388,0.0,-0.1831054538488388,-0.013916015625,-0.01513671875,0.987548828125
1721179456.901,310,312,310,313,311,312,311,311,311,313,311,312,313,311,311,313,311,311,312,312,313,311,313,312,312,20.0,-34.0,33.0,-0.1220703050494194,0.0,-0.1831054538488388,-0.013916015625,-0.01513671875,0.987548828125
1721179456.911,311,311,310,310,310,311,311,313,311,312,310,310,312,312,310,311,312,313,312,313,311,313,311,312,311,20.0,-34.0,33.0,-0.1220703050494194,0.0,-0.1831054538488388,-0.013427734375,-0.0150146484375,0.988525390625
1721179456.921,310,310,310,311,311,311,312,311,311,311,313,311,311,311,311,311,313,311,311,311,311,310,311,313,311,20.0,-34.0,33.0,-0.1220703050494194,-0.1220703050494194,-0.2441406100988388,-0.012939453125,-0.01513671875,0.9871826171875
1721179456.931,310,311,311,310,311,312,312,311,312,312,313,311,310,311,312,313,311,314,313,312,312,311,311,312,312,16.0,-32.0,29.0,-0.2441406100988388,-0.1220703050494194,-0.2441406100988388,-0.012939453125,-0.01513671875,0.9871826171875
1721179456.941,311,311,311,311,310,311,310,312,311,312,312,313,313,310,311,312,312,311,312,311,311,311,311,311,311,16.0,-32.0,29.0,-0.2441406100988388,-0.1220703050494194,-0.2441406100988388,-0.014404296875,-0.014892578125,0.989013671875
1721179456.951,310,311,310,310,308,312,310,313,312,312,310,312,310,311,312,311,311,310,311,311,311,311,312,311,311,16.0,-32.0,29.0,-0.1831054538488388,-0.0610351525247097,-0.2441406100988388,-0.0142822265625,-0.0147705078125,0.989013671875
1721179456.961,310,311,310,311,311,311,311,311,311,311,311,311,311,310,311,311,312,311,312,312,311,312,311,311,310,16.0,-32.0,29.0,-0.1220703050494194,-0.1220703050494194,-0.2441406100988388,-0.0142822265625,-0.0147705078125,0.989013671875
1721179456.971,311,311,310,310,310,310,311,311,311,311,311,311,311,312,311,310,312,311,312,311,311,312,310,311,312,16.0,-32.0,29.0,-0.1220703050494194,-0.1220703050494194,-0.2441406100988388,-0.01416015625,-0.0145263671875,0.9881591796875
1721179456.981,311,311,310,310,310,311,311,311,313,312,311,311,311,311,311,311,312,311,310,311,311,311,311,313,311,16.0,-32.0,29.0,-0.1220703050494194,-0.1220703050494194,-0.2441406100988388,-0.01416015625,-0.014404296875,0.988037109375
1721179456.991,310,311,310,311,310,311,312,310,313,312,311,313,311,311,312,311,311,311,311,311,311,313,311,310,311,16.0,-32.0,29.0,-0.1220703050494194,-0.1220703050494194,-0.30517578125,-0.01416015625,-0.014404296875,0.988037109375
1721179457.001,311,312,311,309,310,311,311,311,312,312,311,311,311,311,311,310,311,311,311,311,311,312,310,311,310,16.0,-32.0,29.0,-0.1220703050494194,-0.1220703050494194,-0.30517578125,-0.0145263671875,-0.0146484375,0.988037109375
1721179457.011,311,310,310,311,310,312,312,310,311,310,311,311,312,310,311,311,312,311,313,311,311,313,313,313,311,16.0,-32.0,29.0,-0.0610351525247097,-0.1220703050494194,-0.30517578125,-0.0133056640625,-0.0152587890625,0.98779296875
1721179457.021,310,311,311,310,311,311,310,312,311,312,312,311,313,310,311,311,312,311,312,312,312,311,311,311,311,16.0,-32.0,29.0,-0.0610351525247097,-0.1220703050494194,-0.2441406100988388,-0.0133056640625,-0.0152587890625,0.98779296875
1721179457.031,310,310,310,310,311,310,311,311,311,311,313,311,311,312,313,313,311,312,312,311,313,311,312,311,312,20.0,-33.0,28.0,-0.0610351525247097,-0.1220703050494194,-0.2441406100988388,-0.013671875,-0.014892578125,0.98876953125
1721179457.041,310,310,310,309,310,312,311,311,311,311,312,310,312,310,313,311,310,311,310,311,311,311,313,312,311,20.0,-33.0,28.0,-0.1831054538488388,-0.1220703050494194,-0.2441406100988388,-0.0142822265625,-0.0146484375,0.9892578125
1721179457.051,311,311,310,310,312,311,311,311,311,312,310,311,311,311,311,313,312,311,312,311,312,311,311,311,312,20.0,-33.0,28.0,-0.2441406100988388,-0.1220703050494194,-0.30517578125,-0.0142822265625,-0.0146484375,0.9892578125
1721179457.061,310,311,310,310,310,313,312,311,311,310,311,311,311,311,311,312,310,312,311,313,312,313,311,312,311,20.0,-33.0,28.0,-0.2441406100988388,-0.1220703050494194,-0.30517578125,-0.0147705078125,-0.01416015625,0.98779296875
1721179457.071,310,310,310,310,310,312,310,311,310,312,311,311,313,310,313,311,311,311,315,311,311,311,312,312,310,20.0,-33.0,28.0,-0.1831054538488388,-0.0610351525247097,-0.30517578125,-0.0152587890625,-0.014892578125,0.98681640625
1721179457.081,311,311,310,309,310,311,311,311,310,311,312,311,313,311,313,312,311,311,310,312,311,311,311,311,312,20.0,-33.0,28.0,-0.2441406100988388,0.0,-0.2441406100988388,-0.0152587890625,-0.014892578125,0.98681640625
1721179457.091,310,311,312,310,310,312,310,311,311,312,311,312,313,311,310,311,311,312,311,313,310,311,311,311,311,20.0,-33.0,28.0,-0.2441406100988388,0.0,-0.2441406100988388,-0.0152587890625,-0.015380859375,0.9876708984375
1721179457.101,311,310,311,310,311,312,310,311,304,311,311,311,312,311,311,311,311,312,313,311,312,311,313,312,312,20.0,-33.0,28.0,-0.2441406100988388,-0.0610351525247097,-0.2441406100988388,-0.0140380859375,-0.0157470703125,0.988037109375
1721179457.111,310,310,311,311,310,311,311,310,311,311,311,313,311,311,312,312,311,312,311,311,311,311,312,311,311,20.0,-33.0,28.0,0.0610351525247097,-0.0610351525247097,-0.30517578125,-0.0140380859375,-0.0157470703125,0.988037109375
1721179457.121,310,310,310,310,311,311,311,311,311,311,311,310,311,311,313,311,311,313,311,311,311,311,311,311,311,20.0,-33.0,28.0,0.0610351525247097,-0.0610351525247097,-0.30517578125,-0.0140380859375,-0.014404296875,0.987060546875
1721179457.131,310,311,310,310,311,311,311,312,310,311,311,311,311,311,311,313,312,311,311,311,313,311,311,313,311,20.0,-30.0,28.0,0.0,-0.0610351525247097,-0.30517578125,-0.013916015625,-0.0150146484375,0.98681640625
1721179457.141,311,311,310,311,310,311,311,311,312,311,311,313,313,311,311,311,310,311,311,311,311,313,310,311,312,20.0,-30.0,28.0,-0.30517578125,-0.0610351525247097,-0.2441406100988388,-0.013916015625,-0.0150146484375,0.98681640625
1721179457.151,310,311,311,312,310,310,312,311,312,311,311,311,311,311,311,311,311,311,310,310,311,311,311,311,311,20.0,-30.0,28.0,-0.30517578125,-0.0610351525247097,-0.2441406100988388,-0.0142822265625,-0.0162353515625,0.9874267578125
1721179457.161,311,310,310,310,310,311,310,310,311,311,310,311,311,312,312,311,312,309,311,311,311,311,312,313,311,20.0,-30.0,28.0,-0.1220703050494194,-0.0610351525247097,-0.2441406100988388,-0.013671875,-0.015380859375,0.987548828125
1721179457.171,310,310,310,310,312,311,310,311,311,311,311,311,311,311,313,311,312,311,311,313,311,311,311,312,313,20.0,-30.0,28.0,-0.0610351525247097,-0.1220703050494194,-0.2441406100988388,-0.013671875,-0.015380859375,0.987548828125
1721179457.181,309,311,310,311,310,311,311,311,311,312,311,311,312,312,311,312,311,313,311,311,311,311,311,312,311,20.0,-30.0,28.0,-0.0610351525247097,-0.1220703050494194,-0.2441406100988388,-0.012939453125,-0.0152587890625,0.98828125
1721179457.191,311,310,311,310,310,311,311,310,311,311,311,312,311,310,311,311,311,312,313,311,311,311,312,311,312,20.0,-30.0,28.0,-0.1831054538488388,-0.0610351525247097,-0.2441406100988388,-0.014404296875,-0.0145263671875,0.9893798828125
1721179457.201,310,311,311,310,309,311,311,312,305,311,311,311,311,310,312,311,313,310,312,312,310,311,311,311,311,20.0,-30.0,28.0,-0.1831054538488388,-0.0610351525247097,-0.2441406100988388,-0.014404296875,-0.0145263671875,0.9893798828125
1721179457.211,311,311,311,310,311,310,313,313,312,312,311,310,311,312,311,311,310,311,314,313,310,313,312,311,310,20.0,-30.0,28.0,-0.1831054538488388,-0.0610351525247097,-0.2441406100988388,-0.0146484375,-0.0142822265625,0.9886474609375
1721179457.221,310,311,311,311,310,311,313,311,313,311,311,311,312,311,311,311,312,313,311,314,311,311,312,311,311,20.0,-30.0,28.0,-0.1831054538488388,0.0,-0.1831054538488388,-0.013916015625,-0.0162353515625,0.9893798828125
1721179457.231,311,313,310,310,310,310,311,311,311,313,313,311,312,312,312,311,312,311,311,311,311,311,313,311,311,19.0,-33.0,31.0,-0.1220703050494194,0.0,-0.2441406100988388,-0.013916015625,-0.0162353515625,0.9893798828125
1721179457.241,310,309,310,310,310,311,311,312,312,311,311,312,310,311,311,313,311,311,312,311,311,313,311,310,311,19.0,-33.0,31.0,-0.1220703050494194,0.0,-0.2441406100988388,-0.014404296875,-0.0167236328125,0.98779296875
1721179457.251,310,310,310,311,312,312,311,311,311,311,312,311,312,310,311,311,310,311,312,311,312,312,312,311,311,19.0,-33.0,31.0,-0.0610351525247097,0.0,-0.2441406100988388,-0.014404296875,-0.01416015625,0.9892578125
1721179457.261,310,311,308,310,310,311,313,310,311,311,311,311,311,311,311,312,312,311,311,311,311,311,311,312,312,19.0,-33.0,31.0,-0.2441406100988388,-0.1220703050494194,-0.2441406100988388,-0.014404296875,-0.01416015625,0.9892578125
1721179457.271,310,310,310,310,311,310,310,311,311,312,311,312,311,311,311,311,311,311,311,311,312,312,313,311,311,19.0,-33.0,31.0,-0.2441406100988388,-0.1220703050494194,-0.2441406100988388,-0.014892578125,-0.0140380859375,0.9896240234375
1721179457.281,310,311,310,310,310,311,311,310,313,311,312,311,311,309,311,313,311,311,312,310,310,311,311,313,313,19.0,-33.0,31.0,-0.2441406100988388,-0.0610351525247097,-0.2441406100988388,-0.01416015625,-0.0146484375,0.98828125
1721179457.291,311,311,310,311,310,311,310,310,312,311,312,311,311,310,310,314,312,311,311,311,311,312,311,311,311,19.0,-33.0,31.0,0.0,0.0,-0.2441406100988388,-0.01416015625,-0.0146484375,0.98828125
1721179457.301,310,311,311,310,310,310,312,311,311,313,311,311,311,312,311,312,310,311,311,312,311,311,311,310,311,19.0,-33.0,31.0,0.0,0.0,-0.2441406100988388,-0.0137939453125,-0.0146484375,0.98779296875
1721179457.311,310,310,310,310,311,312,311,310,311,311,310,311,311,312,311,311,312,311,310,310,311,311,311,311,311,19.0,-33.0,31.0,-0.0610351525247097,0.0,-0.2441406100988388,-0.014892578125,-0.0157470703125,0.988037109375
1721179457.321,311,311,311,310,310,312,311,311,312,311,311,312,311,310,311,311,312,311,311,311,312,311,310,311,310,19.0,-33.0,31.0,-0.1831054538488388,-0.0610351525247097,-0.2441406100988388,-0.014892578125,-0.0157470703125,0.988037109375
1721179457.331,310,311,311,310,311,312,311,310,311,311,311,311,311,311,311,311,311,311,311,310,311,311,311,312,311,17.0,-35.0,28.0,-0.1831054538488388,-0.0610351525247097,-0.2441406100988388,-0.0150146484375,-0.0152587890625,0.9876708984375
1721179457.341,310,311,310,311,310,311,311,310,311,311,311,310,311,311,311,311,311,311,312,313,313,311,311,311,312,17.0,-35.0,28.0,-0.1831054538488388,-0.0610351525247097,-0.2441406100988388,-0.01416015625,-0.0142822265625,0.9874267578125
1721179457.351,310,311,310,311,309,311,311,312,310,311,311,313,311,311,311,311,310,311,311,312,311,312,311,310,311,17.0,-35.0,28.0,-0.2441406100988388,-0.0610351525247097,-0.2441406100988388,-0.01416015625,-0.0142822265625,0.9874267578125
1721179457.361,311,311,310,310,310,312,311,311,311,312,311,312,313,312,310,312,311,310,302,304,310,311,311,310,311,17.0,-35.0,28.0,-0.2441406100988388,-0.0610351525247097,-0.2441406100988388,-0.01416015625,-0.0135498046875,0.9893798828125
1721179457.371,310,311,310,310,310,311,311,311,311,311,311,311,311,311,312,312,311,310,311,311,311,311,312,312,311,17.0,-35.0,28.0,-0.30517578125,0.0,-0.2441406100988388,-0.014404296875,-0.0146484375,0.98779296875
1721179457.381,310,310,311,310,311,311,311,310,311,312,311,312,311,304,311,312,311,311,313,311,313,311,310,311,311,17.0,-35.0,28.0,-0.1220703050494194,0.0,-0.30517578125,-0.014404296875,-0.0146484375,0.98779296875
1721179457.391,311,311,310,310,311,312,313,312,311,311,311,311,311,311,311,313,310,311,311,311,311,313,312,311,311,17.0,-35.0,28.0,-0.1220703050494194,0.0,-0.30517578125,-0.0147705078125,-0.0152587890625,0.987548828125
1721179457.401,310,310,311,310,310,312,313,310,311,311,311,311,311,310,311,311,311,311,312,311,311,312,313,313,311,17.0,-35.0,28.0,0.0610351525247097,-0.0610351525247097,-0.2441406100988388,-0.0147705078125,-0.0137939453125,0.9849853515625
1721179457.411,311,310,310,310,311,311,312,311,313,312,311,311,311,313,310,311,311,311,311,311,311,311,313,313,312,17.0,-35.0,28.0,0.0610351525247097,-0.0610351525247097,-0.2441406100988388,-0.0147705078125,-0.0137939453125,0.9849853515625
1721179457.421,310,310,311,311,311,311,311,311,312,311,311,312,313,311,311,313,311,311,312,311,311,313,311,311,312,17.0,-35.0,28.0,0.0610351525247097,-0.0610351525247097,-0.2441406100988388,-0.014404296875,-0.0140380859375,0.98681640625
1721179457.431,311,310,311,310,310,310,312,311,311,311,311,311,311,311,311,310,311,311,312,311,313,313,311,312,311,18.0,-32.0,27.0,-0.2441406100988388,-0.1220703050494194,-0.2441406100988388,-0.014404296875,-0.0155029296875,0.9879150390625
1721179457.441,310,313,310,309,310,311,311,310,312,311,310,311,310,310,312,312,313,310,311,313,311,313,310,310,312,18.0,-32.0,27.0,-0.2441406100988388,-0.0610351525247097,-0.1831054538488388,-0.014404296875,-0.0155029296875,0.9879150390625
1721179457.451,310,311,311,310,311,313,310,311,311,311,312,311,311,313,311,311,311,310,313,312,313,311,311,311,310,18.0,-32.0,27.0,-0.2441406100988388,-0.0610351525247097,-0.1831054538488388,-0.0146484375,-0.0146484375,0.989013671875
1721179457.461,311,311,310,309,310,311,310,311,312,311,311,311,311,311,310,311,312,311,312,312,313,312,311,311,312,18.0,-32.0,27.0,-0.1220703050494194,-0.0610351525247097,-0.1831054538488388,-0.0130615234375,-0.015380859375,0.9888916015625
1721179457.471,311,311,310,310,310,311,312,310,311,311,310,311,312,311,311,311,311,310,312,311,311,310,311,311,311,18.0,-32.0,27.0,-0.1220703050494194,-0.0610351525247097,-0.2441406100988388,-0.0130615234375,-0.015380859375,0.9888916015625
1721179457.481,310,310,311,311,311,311,311,310,311,311,312,313,311,312,311,311,310,312,312,311,311,312,310,311,311,18.0,-32.0,27.0,-0.1220703050494194,-0.0610351525247097,-0.2441406100988388,-0.01318359375,-0.0152587890625,0.987548828125
1721179457.491,310,310,310,308,305,311,311,312,311,310,312,311,311,311,311,311,312,312,311,311,312,311,312,310,312,18.0,-32.0,27.0,-0.1831054538488388,-0.0610351525247097,-0.2441406100988388,-0.0150146484375,-0.015625,0.9847412109375
1721179457.501,311,310,310,311,311,313,311,311,313,311,310,311,311,311,311,312,311,312,310,311,312,311,310,313,311,18.0,-32.0,27.0,-0.2441406100988388,-0.1831054538488388,-0.2441406100988388,-0.0150146484375,-0.015625,0.9847412109375
1721179457.511,311,310,312,308,311,311,311,312,311,313,310,311,312,310,311,312,311,312,311,311,311,311,313,311,313,18.0,-32.0,27.0,-0.2441406100988388,-0.1831054538488388,-0.2441406100988388,-0.0152587890625,-0.01611328125,0.9859619140625
1721179457.521,308,310,311,310,310,311,313,311,311,310,310,311,312,310,311,312,311,312,311,311,310,313,310,312,312,18.0,-32.0,27.0,-0.1831054538488388,-0.1831054538488388,-0.2441406100988388,-0.014892578125,-0.014892578125,0.9873046875
1721179457.531,310,310,309,311,311,311,312,311,310,312,311,310,311,311,311,312,312,310,311,310,313,311,311,311,312,16.0,-34.0,24.0,0.1220703050494194,-0.1831054538488388,-0.2441406100988388,-0.014892578125,-0.014892578125,0.9873046875
1721179457.541,310,310,310,310,310,311,311,311,311,311,311,311,311,311,310,311,310,311,311,310,311,311,311,310,312,16.0,-34.0,24.0,0.1220703050494194,-0.1831054538488388,-0.2441406100988388,-0.0142822265625,-0.0147705078125,0.9881591796875
1721179457.551,310,311,310,310,311,312,311,310,311,311,311,311,310,311,311,311,310,310,312,311,311,312,312,312,311,16.0,-34.0,24.0,0.0,-0.1220703050494194,-0.1831054538488388,-0.0145263671875,-0.015625,0.9884033203125
1721179457.561,310,311,311,310,311,310,313,311,311,310,311,310,311,310,311,312,312,311,311,311,311,311,310,311,311,16.0,-34.0,24.0,-0.2441406100988388,-0.1220703050494194,-0.1831054538488388,-0.0145263671875,-0.015625,0.9884033203125
1721179457.571,309,309,310,310,311,311,311,312,311,311,311,312,311,311,311,311,312,311,315,311,311,311,311,310,311,16.0,-34.0,24.0,-0.2441406100988388,-0.1220703050494194,-0.1831054538488388,-0.01416015625,-0.015625,0.988525390625
1721179457.581,310,310,310,310,311,313,311,311,311,311,311,311,311,311,311,313,311,311,310,311,311,311,312,311,311,16.0,-34.0,24.0,-0.0610351525247097,-0.1220703050494194,-0.2441406100988388,-0.0145263671875,-0.0146484375,0.9859619140625
1721179457.591,310,311,310,310,311,311,311,311,310,311,312,311,311,310,310,310,311,311,310,310,311,310,310,311,311,16.0,-34.0,24.0,0.0,-0.0610351525247097,-0.2441406100988388,-0.0145263671875,-0.0146484375,0.9859619140625
1721179457.601,311,310,311,310,310,311,312,311,310,311,311,311,311,312,311,311,312,311,311,312,311,312,313,311,311,16.0,-34.0,24.0,0.0,-0.0610351525247097,-0.2441406100988388,-0.0145263671875,-0.01416015625,0.98583984375
1721179457.611,309,309,311,310,310,311,311,310,311,311,311,311,311,311,310,311,311,311,311,313,310,311,311,311,311,16.0,-34.0,24.0,-0.2441406100988388,-0.0610351525247097,-0.2441406100988388,-0.0142822265625,-0.0147705078125,0.989013671875
1721179457.621,310,310,310,311,310,311,311,310,310,311,312,311,311,311,311,311,311,311,310,311,311,312,311,311,313,16.0,-34.0,24.0,-0.4882812201976776,-0.1220703050494194,-0.1831054538488388,-0.0142822265625,-0.0147705078125,0.989013671875
1721179457.631,312,310,310,309,310,310,311,311,311,313,311,313,311,311,311,311,311,311,311,311,311,311,312,312,313,18.0,-33.0,25.0,-0.4882812201976776,-0.1220703050494194,-0.1831054538488388,-0.0150146484375,-0.015380859375,0.9908447265625
1721179457.641,310,310,310,310,311,311,312,311,312,311,311,311,311,311,311,312,311,312,310,311,311,311,311,311,312,18.0,-33.0,25.0,-0.1831054538488388,-0.1220703050494194,-0.1831054538488388,-0.0145263671875,-0.01416015625,0.9859619140625
1721179457.651,310,310,310,310,311,312,312,311,310,312,311,311,311,310,311,312,311,311,311,312,311,311,311,311,313,18.0,-33.0,25.0,0.0610351525247097,0.0,-0.2441406100988388,-0.0145263671875,-0.01416015625,0.9859619140625
1721179457.661,310,310,310,311,310,311,310,311,311,311,311,311,311,311,311,311,311,313,312,311,311,311,311,311,311,18.0,-33.0,25.0,0.0610351525247097,0.0,-0.2441406100988388,-0.0142822265625,-0.0147705078125,0.9857177734375
1721179457.671,310,312,310,311,311,311,311,310,311,311,310,311,311,310,311,313,312,311,313,312,311,312,313,311,311,18.0,-33.0,25.0,0.0,0.0,-0.2441406100988388,-0.0146484375,-0.015869140625,0.98876953125
1721179457.681,311,310,310,311,310,311,312,310,310,313,311,311,311,310,311,311,311,312,311,312,311,310,311,312,311,18.0,-33.0,25.0,-0.0610351525247097,-0.1220703050494194,-0.2441406100988388,-0.0146484375,-0.015869140625,0.98876953125
1721179457.691,311,309,310,310,311,312,312,312,311,311,311,313,311,313,311,313,311,310,312,312,310,310,311,311,311,18.0,-33.0,25.0,-0.0610351525247097,-0.1220703050494194,-0.2441406100988388,-0.0147705078125,-0.0152587890625,0.9892578125
1721179457.701,310,311,310,310,310,313,311,311,311,312,313,311,311,311,312,311,312,311,310,314,311,311,312,313,311,18.0,-33.0,25.0,-0.0610351525247097,-0.1220703050494194,-0.2441406100988388,-0.0140380859375,-0.0137939453125,0.98876953125
1721179457.711,311,310,311,310,310,311,310,311,312,311,311,311,310,309,310,311,312,310,312,312,311,312,311,313,313,18.0,-33.0,25.0,-0.1831054538488388,-0.1220703050494194,-0.2441406100988388,-0.0140380859375,-0.0137939453125,0.98876953125
1721179457.721,310,312,311,311,311,311,313,311,313,311,311,311,311,311,311,311,310,311,313,311,312,310,311,311,311,18.0,-33.0,25.0,-0.1831054538488388,-0.1220703050494194,-0.2441406100988388,-0.01416015625,-0.013916015625,0.9871826171875
1721179457.731,310,311,310,311,310,313,311,310,311,311,312,311,311,310,311,313,311,312,314,311,311,311,313,311,311,18.0,-30.0,31.0,-0.2441406100988388,-0.1220703050494194,-0.2441406100988388,-0.014892578125,-0.0152587890625,0.9888916015625
1721179457.741,310,311,310,311,310,313,311,311,312,311,311,310,311,312,311,311,311,311,311,311,311,312,311,312,311,18.0,-30.0,31.0,-0.2441406100988388,-0.0610351525247097,-0.30517578125,-0.014892578125,-0.0152587890625,0.9888916015625
1721179457.751,310,311,310,310,311,312,312,310,312,311,312,313,311,311,311,311,311,311,311,310,311,310,311,311,311,18.0,-30.0,31.0,-0.2441406100988388,-0.0610351525247097,-0.30517578125,-0.0140380859375,-0.014892578125,0.989501953125
1721179457.761,311,311,310,313,310,312,311,311,311,311,310,311,310,311,311,311,312,310,310,311,311,312,313,310,311,18.0,-30.0,31.0,-0.0610351525247097,-0.0610351525247097,-0.30517578125,-0.01416015625,-0.0137939453125,0.9879150390625
1721179457.771,311,311,311,310,311,311,311,310,311,311,311,312,311,311,311,311,311,311,311,311,311,311,311,311,311,18.0,-30.0,31.0,0.0,-0.1220703050494194,-0.2441406100988388,-0.01416015625,-0.0137939453125,0.9879150390625
1721179457.781,310,310,310,311,311,312,313,311,311,312,312,311,310,311,311,311,311,311,311,310,310,311,310,313,312,18.0,-30.0,31.0,0.0,-0.1220703050494194,-0.2441406100988388,-0.013671875,-0.013916015625,0.987060546875
1721179457.791,311,311,310,310,310,311,311,311,310,313,311,311,311,309,312,310,313,311,312,310,311,311,312,311,312,18.0,-30.0,31.0,-0.1831054538488388,-0.1220703050494194,-0.2441406100988388,-0.01416015625,-0.015380859375,0.988525390625
1721179457.801,311,311,311,311,311,312,311,311,311,312,312,310,310,310,310,311,311,310,310,312,311,312,311,311,313,18.0,-30.0,31.0,-0.30517578125,-0.1220703050494194,-0.2441406100988388,-0.01416015625,-0.015380859375,0.988525390625
1721179457.811,310,311,310,310,310,311,311,312,311,311,311,311,311,312,311,312,310,311,311,311,311,311,311,311,311,18.0,-30.0,31.0,-0.30517578125,-0.1220703050494194,-0.2441406100988388,-0.014404296875,-0.015625,0.9886474609375
1721179457.821,310,310,310,308,310,310,311,311,310,311,310,310,310,311,311,310,311,311,310,311,312,311,312,310,311,18.0,-30.0,31.0,-0.1831054538488388,-0.1220703050494194,-0.1831054538488388,-0.0146484375,-0.0146484375,0.98828125
1721179457.831,310,310,310,311,310,311,311,313,311,310,312,311,312,311,310,310,313,311,310,313,311,311,311,311,311,17.0,-34.0,28.0,0.1220703050494194,-0.1220703050494194,-0.30517578125,-0.0146484375,-0.0146484375,0.98828125
1721179457.841,310,311,311,311,310,311,311,311,312,311,311,311,311,311,311,311,311,311,311,313,311,312,311,310,312,17.0,-34.0,28.0,0.1220703050494194,-0.1220703050494194,-0.30517578125,-0.0135498046875,-0.014404296875,0.9876708984375
1721179457.851,309,310,310,310,310,311,312,311,311,313,310,311,311,312,312,311,311,313,311,310,312,311,311,313,312,17.0,-34.0,28.0,0.0610351525247097,-0.0610351525247097,-0.30517578125,-0.013427734375,-0.0155029296875,0.9876708984375
1721179457.861,310,310,311,310,311,311,310,311,311,311,311,312,312,310,311,312,311,310,311,311,310,314,311,310,311,17.0,-34.0,28.0,-0.1220703050494194,-0.0610351525247097,-0.30517578125,-0.013427734375,-0.0155029296875,0.9876708984375
1721179457.871,311,310,311,309,310,311,311,310,311,313,311,311,311,311,310,311,311,312,311,310,310,313,311,312,311,17.0,-34.0,28.0,-0.2441406100988388,-0.1220703050494194,-0.2441406100988388,-0.0137939453125,-0.0152587890625,0.988037109375
1721179457.882,311,310,310,311,310,311,310,311,311,311,311,311,311,311,311,311,311,311,311,311,315,312,311,312,311,17.0,-34.0,28.0,-0.30517578125,-0.1220703050494194,-0.2441406100988388,-0.0142822265625,-0.014404296875,0.9876708984375
1721179457.891,310,309,310,310,311,311,311,311,312,311,312,311,311,311,312,312,311,312,310,313,311,311,311,310,311,17.0,-34.0,28.0,-0.3662109076976776,-0.0610351525247097,-0.2441406100988388,-0.013916015625,-0.013916015625,0.9876708984375
1721179457.901,310,311,310,308,311,311,311,313,311,311,311,312,312,311,311,312,313,312,311,310,312,312,311,312,310,17.0,-34.0,28.0,-0.30517578125,-0.0610351525247097,-0.2441406100988388,-0.0135498046875,-0.014404296875,0.9879150390625
1721179457.911,310,308,311,311,310,312,311,313,313,310,312,311,310,311,311,311,313,312,308,311,313,312,311,310,311,17.0,-34.0,28.0,-0.2441406100988388,-0.0610351525247097,-0.2441406100988388,-0.0135498046875,-0.0146484375,0.98828125
1721179457.921,310,310,310,310,311,311,311,311,311,311,312,311,311,311,311,313,312,311,311,312,311,311,311,312,311,17.0,-34.0,28.0,-0.0610351525247097,-0.0610351525247097,-0.30517578125,-0.013671875,-0.01416015625,0.9881591796875
1721179457.931,311,310,311,310,311,311,311,311,313,311,310,312,312,313,311,311,312,312,312,312,310,313,310,312,311,19.0,-38.0,33.0,0.0,-0.0610351525247097,-0.30517578125,-0.013671875,-0.01416015625,0.9869384765625
1721179457.941,311,311,310,310,310,310,311,311,311,313,310,311,311,311,311,312,311,311,312,313,311,313,311,311,311,19.0,-38.0,33.0,-0.1220703050494194,-0.0610351525247097,-0.2441406100988388,-0.0135498046875,-0.01513671875,0.9864501953125
1721179457.951,310,311,310,310,310,311,313,311,310,311,310,311,311,311,311,313,311,311,313,311,311,312,310,311,313,19.0,-38.0,33.0,-0.1220703050494194,-0.0610351525247097,-0.2441406100988388,-0.0137939453125,-0.015625,0.986572265625
1721179457.961,310,311,311,311,310,311,310,311,311,311,312,311,311,312,311,310,310,311,311,313,311,312,313,311,311,19.0,-38.0,33.0,-0.1220703050494194,-0.1220703050494194,-0.1831054538488388,-0.013916015625,-0.0152587890625,0.98681640625
1721179457.971,311,310,310,311,310,312,311,310,311,311,310,311,310,310,311,311,311,312,311,311,311,311,311,313,311,19.0,-38.0,33.0,-0.1220703050494194,-0.1220703050494194,-0.1831054538488388,-0.0140380859375,-0.0142822265625,0.9874267578125
1721179457.981,311,310,310,310,311,311,311,311,312,312,311,311,311,310,311,311,311,310,313,313,311,313,311,310,311,19.0,-38.0,33.0,-0.1831054538488388,-0.1220703050494194,-0.2441406100988388,-0.0145263671875,-0.0137939453125,0.9884033203125
1721179457.991,311,311,310,310,311,311,313,311,311,311,311,311,313,311,311,312,311,311,313,311,312,313,311,311,311,19.0,-38.0,33.0,-0.2441406100988388,-0.1220703050494194,-0.2441406100988388,-0.0146484375,-0.013916015625,0.9876708984375
1721179458.001,310,311,310,310,310,312,311,310,311,311,312,311,312,310,310,312,311,311,310,311,311,311,311,313,313,19.0,-38.0,33.0,-0.2441406100988388,-0.0610351525247097,-0.2441406100988388,-0.0140380859375,-0.01416015625,0.9862060546875
1721179458.011,310,311,310,310,313,312,311,311,312,312,312,311,311,311,311,311,312,312,310,312,312,311,311,311,313,19.0,-38.0,33.0,-0.1831054538488388,-0.0610351525247097,-0.2441406100988388,-0.013427734375,-0.0145263671875,0.9873046875
1721179458.021,310,311,309,309,311,311,311,312,311,311,313,311,311,313,310,312,312,311,311,313,311,310,311,311,310,19.0,-38.0,33.0,-0.1220703050494194,-0.0610351525247097,-0.2441406100988388,-0.0135498046875,-0.01416015625,0.988525390625
1721179458.031,311,310,310,311,311,312,311,311,311,312,312,311,311,312,311,313,311,311,310,311,311,311,311,311,310,18.0,-31.0,26.0,-0.1831054538488388,-0.1220703050494194,-0.2441406100988388,-0.013671875,-0.013916015625,0.9884033203125
1721179458.041,309,311,310,311,311,312,311,311,310,312,313,311,311,311,311,310,313,310,313,310,311,311,311,311,311,18.0,-31.0,26.0,-0.1831054538488388,-0.1220703050494194,-0.2441406100988388,-0.0137939453125,-0.0147705078125,0.988037109375
1721179458.051,311,311,310,311,310,311,312,311,313,312,310,311,311,311,311,312,309,311,311,311,312,311,312,311,311,18.0,-31.0,26.0,-0.1220703050494194,-0.1220703050494194,-0.2441406100988388,-0.0140380859375,-0.015869140625,0.9869384765625
1721179458.061,311,308,310,310,310,311,311,311,311,311,311,311,310,310,311,313,313,311,311,310,311,311,311,313,311,18.0,-31.0,26.0,-0.0610351525247097,-0.1831054538488388,-0.2441406100988388,-0.014404296875,-0.01611328125,0.986083984375
1721179458.071,310,310,311,310,311,311,311,312,310,312,311,311,311,311,312,311,311,310,311,311,311,310,311,313,311,18.0,-31.0,26.0,-0.1220703050494194,-0.1831054538488388,-0.2441406100988388,-0.0146484375,-0.015380859375,0.9871826171875
1721179458.081,311,310,310,311,310,311,313,313,311,312,311,311,312,311,313,313,311,312,311,310,311,310,312,311,312,18.0,-31.0,26.0,-0.2441406100988388,-0.1220703050494194,-0.1831054538488388,-0.0142822265625,-0.01513671875,0.989013671875
1721179458.091,311,310,311,310,311,312,316,311,312,310,311,311,311,310,310,311,311,310,311,310,313,311,312,311,310,18.0,-31.0,26.0,-0.30517578125,-0.0610351525247097,-0.1831054538488388,-0.013671875,-0.015380859375,0.9886474609375
1721179458.101,310,311,310,310,311,313,311,312,311,311,312,311,311,310,311,311,311,311,310,311,311,312,310,311,313,18.0,-31.0,26.0,-0.1831054538488388,-0.0610351525247097,-0.2441406100988388,-0.01416015625,-0.0152587890625,0.987548828125
1721179458.111,310,310,312,310,311,311,313,311,312,311,310,310,311,311,311,311,311,311,312,310,311,311,311,311,311,18.0,-31.0,26.0,-0.0610351525247097,-0.1220703050494194,-0.2441406100988388,-0.0146484375,-0.015625,0.98779296875
1721179458.121,309,310,311,311,311,312,311,311,311,311,311,311,311,311,311,311,311,310,310,312,311,311,312,312,311,18.0,-31.0,26.0,0.0610351525247097,-0.1220703050494194,-0.2441406100988388,-0.01416015625,-0.015380859375,0.9873046875
1721179458.131,310,310,310,311,310,311,311,312,311,311,311,311,311,311,311,313,311,311,311,312,312,311,311,311,310,19.0,-34.0,31.0,0.0,-0.1220703050494194,-0.2441406100988388,-0.01416015625,-0.0147705078125,0.9873046875
1721179458.141,311,311,310,310,310,313,312,311,311,313,311,311,311,311,312,311,311,311,311,310,311,310,311,312,312,19.0,-34.0,31.0,-0.2441406100988388,-0.0610351525247097,-0.30517578125,-0.01513671875,-0.0150146484375,0.98876953125
1721179458.151,310,310,310,310,309,310,311,310,310,311,311,311,311,310,311,310,312,310,311,311,312,310,311,311,311,19.0,-34.0,31.0,-0.30517578125,-0.0610351525247097,-0.30517578125,-0.014892578125,-0.014892578125,0.988525390625
1721179458.161,310,311,310,310,311,311,311,311,311,311,311,311,312,311,311,312,311,311,312,312,311,311,312,311,311,19.0,-34.0,31.0,-0.30517578125,-0.0610351525247097,-0.2441406100988388,-0.013916015625,-0.0145263671875,0.9866943359375
1721179458.171,310,310,311,311,310,313,311,312,311,311,311,311,311,310,310,311,313,311,311,315,312,312,310,312,311,19.0,-34.0,31.0,-0.2441406100988388,-0.0610351525247097,-0.1831054538488388,-0.013671875,-0.01513671875,0.9866943359375
1721179458.181,310,311,311,311,311,311,311,311,311,311,311,311,311,312,311,311,311,310,313,310,311,312,312,311,312,19.0,-34.0,31.0,-0.1831054538488388,-0.0610351525247097,-0.1831054538488388,-0.013916015625,-0.015625,0.988037109375
1721179458.191,310,310,311,310,311,311,311,311,311,311,311,311,311,311,311,311,311,311,311,311,312,311,310,311,312,19.0,-34.0,31.0,-0.0610351525247097,-0.0610351525247097,-0.1831054538488388,-0.0142822265625,-0.0155029296875,0.9879150390625
1721179458.201,311,311,310,311,310,311,311,311,312,311,310,311,311,311,312,310,311,310,312,312,310,311,312,310,311,19.0,-34.0,31.0,0.0,-0.0610351525247097,-0.2441406100988388,-0.014404296875,-0.0150146484375,0.987548828125
1721179458.211,311,310,310,310,311,311,313,312,313,311,311,311,311,310,311,312,311,311,311,311,311,311,311,313,311,19.0,-34.0,31.0,-0.0610351525247097,-0.0610351525247097,-0.30517578125,-0.013671875,-0.0147705078125,0.9876708984375
1721179458.221,310,310,309,310,311,312,311,312,311,312,311,311,311,311,310,311,311,311,312,313,312,309,311,311,311,19.0,-34.0,31.0,-0.1220703050494194,-0.0610351525247097,-0.2441406100988388,-0.0130615234375,-0.0147705078125,0.9874267578125
1721179458.231,310,310,311,310,310,311,310,311,310,311,311,311,311,311,311,311,311,311,311,311,311,311,311,311,311,17.0,-32.0,31.0,-0.1220703050494194,-0.0610351525247097,-0.2441406100988388,-0.013671875,-0.015380859375,0.9871826171875
1721179458.241,310,310,311,310,311,311,311,311,310,311,311,310,312,312,311,311,311,311,313,311,311,312,313,312,311,17.0,-32.0,31.0,-0.1220703050494194,-0.0610351525247097,-0.2441406100988388,-0.01416015625,-0.0155029296875,0.9873046875
1721179458.251,310,310,310,310,311,312,311,311,311,313,310,311,311,310,311,311,311,310,312,312,310,311,311,311,311,17.0,-32.0,31.0,-0.1220703050494194,-0.0610351525247097,-0.2441406100988388,-0.0142822265625,-0.0145263671875,0.9871826171875
1721179458.261,311,310,310,310,311,311,312,311,311,312,311,311,310,312,311,310,310,311,311,313,312,311,311,311,311,17.0,-32.0,31.0,-0.1831054538488388,-0.1220703050494194,-0.2441406100988388,-0.0142822265625,-0.0140380859375,0.9871826171875
1721179458.271,311,310,310,311,312,312,311,311,311,311,312,310,311,308,311,311,311,310,313,311,311,311,313,310,311,17.0,-32.0,31.0,-0.1831054538488388,-0.1220703050494194,-0.2441406100988388,-0.0137939453125,-0.014404296875,0.98779296875
1721179458.281,310,311,310,310,310,311,311,311,311,310,311,311,310,310,311,311,312,310,311,311,310,310,310,311,311,17.0,-32.0,31.0,-0.1220703050494194,-0.1220703050494194,-0.30517578125,-0.013671875,-0.0145263671875,0.9876708984375
1721179458.291,310,310,311,309,310,311,311,312,311,311,313,311,311,311,310,312,311,313,312,311,312,311,311,311,310,17.0,-32.0,31.0,-0.1220703050494194,-0.0610351525247097,-0.30517578125,-0.014404296875,-0.014892578125,0.9874267578125
1721179458.301,310,310,310,312,311,311,311,311,312,311,311,310,311,313,311,312,311,311,312,311,311,310,312,312,313,17.0,-32.0,31.0,-0.1220703050494194,-0.0610351525247097,-0.30517578125,-0.01416015625,-0.015380859375,0.98779296875
1721179458.311,310,311,309,311,310,311,312,311,311,311,311,312,311,311,312,311,311,311,311,310,312,312,311,311,312,17.0,-32.0,31.0,-0.1831054538488388,-0.0610351525247097,-0.2441406100988388,-0.0140380859375,-0.0155029296875,0.9874267578125
1721179458.321,311,312,311,311,310,311,312,311,311,313,311,311,311,311,311,311,311,312,312,311,311,313,311,311,311,17.0,-32.0,31.0,-0.1831054538488388,-0.0610351525247097,-0.2441406100988388,-0.0142822265625,-0.0155029296875,0.9866943359375
1721179458.331,311,309,311,310,311,311,310,311,311,311,312,311,311,311,312,312,311,311,310,310,312,311,313,311,310,18.0,-33.0,28.0,-0.2441406100988388,-0.1220703050494194,-0.2441406100988388,-0.0140380859375,-0.015380859375,0.987060546875
1721179458.341,310,311,311,311,311,311,312,311,311,312,312,312,312,311,310,312,311,311,310,311,311,311,312,311,311,18.0,-33.0,28.0,-0.2441406100988388,-0.1220703050494194,-0.2441406100988388,-0.013916015625,-0.015625,0.98828125
1721179458.351,310,311,310,308,310,313,312,310,311,311,311,311,313,311,313,311,311,311,311,311,310,312,311,311,312,18.0,-33.0,28.0,-0.1831054538488388,-0.1220703050494194,-0.1831054538488388,-0.0140380859375,-0.015625,0.9888916015625
1721179458.361,310,311,311,311,312,310,311,311,310,311,311,311,311,310,311,311,311,311,311,312,312,311,312,311,312,18.0,-33.0,28.0,-0.1220703050494194,-0.1220703050494194,-0.1831054538488388,-0.0142822265625,-0.0150146484375,0.9879150390625
1721179458.371,311,310,310,310,311,311,311,311,311,311,312,313,310,310,310,311,311,311,312,313,311,312,311,310,312,18.0,-33.0,28.0,-0.0610351525247097,-0.0610351525247097,-0.2441406100988388,-0.0137939453125,-0.0145263671875,0.9864501953125
1721179458.381,310,311,311,310,310,312,311,311,312,311,311,311,311,313,311,311,312,311,310,312,312,313,311,311,312,18.0,-33.0,28.0,-0.0610351525247097,-0.0610351525247097,-0.2441406100988388,-0.013427734375,-0.0147705078125,0.98583984375
1721179458.391,309,311,310,311,310,310,312,311,310,311,311,312,310,310,311,311,312,312,310,310,310,311,311,311,311,18.0,-33.0,28.0,-0.0610351525247097,-0.0610351525247097,-0.2441406100988388,-0.013916015625,-0.0147705078125,0.98681640625
1721179458.401,310,310,310,310,310,311,311,311,311,310,311,311,311,311,310,312,311,310,311,311,311,311,310,311,311,18.0,-33.0,28.0,-0.0610351525247097,-0.0610351525247097,-0.30517578125,-0.014404296875,-0.014404296875,0.9876708984375
1721179458.411,310,310,310,310,311,311,312,311,311,312,311,311,311,311,312,310,310,311,311,311,311,310,310,311,310,18.0,-33.0,28.0,-0.1220703050494194,0.0,-0.30517578125,-0.014404296875,-0.0145263671875,0.9874267578125
1721179458.421,311,311,310,311,311,312,311,310,311,311,311,311,311,311,310,311,313,310,313,311,311,311,311,311,311,18.0,-33.0,28.0,-0.30517578125,0.0,-0.30517578125,-0.01416015625,-0.01513671875,0.9876708984375
1721179458.431,310,310,310,310,310,313,311,312,311,313,311,310,310,311,311,311,312,313,311,313,311,310,311,311,311,18.0,-33.0,28.0,-0.2441406100988388,-0.0610351525247097,-0.2441406100988388,-0.0137939453125,-0.014892578125,0.9873046875
1721179458.441,310,311,310,310,310,310,311,310,313,312,310,311,311,311,311,311,311,313,311,311,310,311,310,311,311,16.0,-33.0,30.0,-0.1220703050494194,-0.0610351525247097,-0.2441406100988388,-0.0140380859375,-0.0145263671875,0.9859619140625
1721179458.451,310,310,310,310,310,310,311,310,310,312,311,311,311,310,311,313,312,311,312,310,312,312,311,311,312,16.0,-33.0,30.0,-0.1220703050494194,-0.0610351525247097,-0.2441406100988388,-0.014404296875,-0.0145263671875,0.986083984375
1721179458.471,310,310,309,309,310,311,312,311,312,311,311,311,312,311,311,311,311,311,312,312,310,311,311,312,312,16.0,-33.0,30.0,-0.1831054538488388,-0.0610351525247097,-0.2441406100988388,-0.013916015625,-0.015380859375,0.9869384765625
1721179458.481,310,311,310,310,311,311,311,310,310,311,312,311,310,311,311,310,311,312,311,311,311,311,312,311,310,16.0,-33.0,30.0,-0.0610351525247097,0.0,-0.2441406100988388,-0.0146484375,-0.015380859375,0.9874267578125
1721179458.491,310,311,310,310,311,311,310,311,311,311,312,311,311,311,311,313,311,311,311,310,311,313,311,311,311,16.0,-33.0,30.0,0.0,0.0,-0.2441406100988388,-0.0152587890625,-0.0155029296875,0.98828125
1721179458.501,310,310,311,311,311,311,311,313,311,311,312,311,312,311,311,311,311,313,312,311,312,311,311,312,312,16.0,-33.0,30.0,-0.0610351525247097,-0.0610351525247097,-0.30517578125,-0.0147705078125,-0.0155029296875,0.98779296875
1721179458.511,311,310,310,310,310,310,311,310,311,311,311,311,310,312,310,311,311,311,311,311,311,312,313,310,313,16.0,-33.0,30.0,-0.1220703050494194,-0.0610351525247097,-0.30517578125,-0.01416015625,-0.0150146484375,0.987548828125
1721179458.521,310,310,310,310,310,311,311,311,313,311,311,311,311,310,310,313,312,310,311,311,311,310,311,310,311,16.0,-33.0,30.0,-0.1220703050494194,-0.0610351525247097,-0.30517578125,-0.0137939453125,-0.0147705078125,0.98779296875
1721179458.531,311,311,310,310,310,311,311,311,311,312,313,311,311,311,311,313,311,310,311,311,311,311,313,311,313,21.0,-32.0,30.0,-0.0610351525247097,-0.1220703050494194,-0.2441406100988388,-0.0135498046875,-0.014404296875,0.9873046875
1721179458.541,311,311,310,310,310,311,312,311,310,311,312,312,311,311,311,312,311,311,313,311,311,311,311,311,311,21.0,-32.0,30.0,-0.1831054538488388,-0.0610351525247097,-0.2441406100988388,-0.013916015625,-0.0147705078125,0.9873046875
1721179458.551,310,310,310,311,311,311,311,310,311,313,310,310,310,310,311,311,311,312,311,313,310,311,311,310,313,21.0,-32.0,30.0,-0.2441406100988388,-0.0610351525247097,-0.2441406100988388,-0.0145263671875,-0.015380859375,0.98828125
1721179458.561,310,311,312,308,310,311,310,311,312,311,311,311,311,311,311,311,312,311,311,311,313,312,311,311,311,21.0,-32.0,30.0,-0.1831054538488388,-0.0610351525247097,-0.2441406100988388,-0.0150146484375,-0.0150146484375,0.9879150390625
1721179458.571,310,310,311,310,311,311,310,310,311,311,311,311,311,310,311,313,313,310,311,311,311,311,310,311,311,21.0,-32.0,30.0,-0.1220703050494194,-0.0610351525247097,-0.2441406100988388,-0.014892578125,-0.01416015625,0.9871826171875
1721179458.581,310,311,310,310,312,311,311,310,313,310,311,311,312,311,311,311,311,311,311,312,311,311,311,311,313,21.0,-32.0,30.0,-0.1220703050494194,-0.0610351525247097,-0.2441406100988388,-0.013671875,-0.014892578125,0.9879150390625
1721179458.591,310,310,310,309,312,311,312,310,311,311,311,311,311,311,312,310,311,311,311,311,311,310,311,311,311,21.0,-32.0,30.0,-0.1831054538488388,-0.0610351525247097,-0.1831054538488388,-0.0130615234375,-0.0157470703125,0.98779296875
1721179458.601,311,310,310,310,310,311,311,311,311,312,311,311,310,311,311,312,310,312,311,311,311,312,312,312,312,21.0,-32.0,30.0,-0.1831054538488388,-0.0610351525247097,-0.1831054538488388,-0.0130615234375,-0.0155029296875,0.9866943359375
1721179458.611,310,311,310,310,311,312,311,312,311,311,312,312,311,311,311,311,310,311,311,311,311,311,310,311,311,21.0,-32.0,30.0,-0.1220703050494194,-0.0610351525247097,-0.1831054538488388,-0.013427734375,-0.0150146484375,0.9871826171875
1721179458.621,310,309,308,310,310,311,312,311,310,311,311,311,311,311,311,313,306,312,311,311,310,310,312,311,311,21.0,-32.0,30.0,-0.0610351525247097,-0.0610351525247097,-0.2441406100988388,-0.0137939453125,-0.014892578125,0.989013671875
1721179458.631,311,311,310,311,311,311,313,310,311,312,312,311,311,311,310,312,313,312,311,310,311,311,311,311,311,18.0,-36.0,31.0,-0.1220703050494194,-0.0610351525247097,-0.2441406100988388,-0.01416015625,-0.0150146484375,0.9892578125
1721179458.641,311,310,311,311,311,312,311,311,311,312,311,311,312,311,310,311,311,312,313,311,312,311,311,312,311,18.0,-36.0,31.0,-0.1220703050494194,-0.0610351525247097,-0.2441406100988388,-0.0146484375,-0.01513671875,0.98828125
1721179458.651,311,310,311,312,310,312,311,311,312,312,311,311,311,310,311,311,313,312,310,311,312,311,311,312,312,18.0,-36.0,31.0,-0.1831054538488388,-0.0610351525247097,-0.2441406100988388,-0.0146484375,-0.01513671875,0.988037109375
1721179458.661,311,311,311,310,312,313,311,310,311,311,311,311,310,311,312,312,310,311,311,311,313,312,313,312,311,18.0,-36.0,31.0,-0.1220703050494194,-0.1220703050494194,-0.1831054538488388,-0.0140380859375,-0.0150146484375,0.9874267578125
1721179458.671,310,310,311,310,310,310,311,312,311,310,310,311,312,311,311,311,312,312,311,311,311,311,311,310,311,18.0,-36.0,31.0,-0.0610351525247097,-0.1220703050494194,-0.2441406100988388,-0.0137939453125,-0.0155029296875,0.987548828125
1721179458.681,310,310,310,310,310,311,313,312,311,312,312,312,313,311,311,313,313,312,312,312,311,311,310,313,311,18.0,-36.0,31.0,-0.0610351525247097,-0.1220703050494194,-0.2441406100988388,-0.0145263671875,-0.015625,0.989013671875
1721179458.691,310,311,310,310,310,313,310,311,311,311,311,312,311,310,311,311,311,313,311,311,311,311,310,312,311,18.0,-36.0,31.0,-0.0610351525247097,-0.1220703050494194,-0.2441406100988388,-0.014892578125,-0.0152587890625,0.9893798828125
1721179458.701,310,311,310,310,311,311,311,311,311,313,312,311,311,310,311,312,311,311,311,311,310,311,311,311,311,18.0,-36.0,31.0,-0.0610351525247097,-0.1220703050494194,-0.2441406100988388,-0.0146484375,-0.014892578125,0.9876708984375
1721179458.711,310,310,308,310,309,311,311,311,311,311,311,311,311,311,311,310,310,312,313,312,311,311,313,310,311,18.0,-36.0,31.0,-0.1831054538488388,-0.1220703050494194,-0.1831054538488388,-0.0140380859375,-0.014404296875,0.986083984375
1721179458.721,310,311,310,310,310,310,311,310,311,311,310,310,311,311,311,311,311,311,312,311,311,311,313,311,311,18.0,-36.0,31.0,-0.30517578125,-0.0610351525247097,-0.2441406100988388,-0.0135498046875,-0.014892578125,0.98681640625
1721179458.731,309,310,310,310,310,313,311,311,311,311,310,310,310,313,312,311,311,313,311,310,310,311,311,311,312,18.0,-36.0,31.0,-0.3662109076976776,-0.0610351525247097,-0.2441406100988388,-0.013427734375,-0.01513671875,0.9881591796875
1721179458.741,310,310,310,311,309,311,311,311,313,312,311,313,312,312,311,311,310,312,311,311,313,311,311,311,313,17.0,-32.0,31.0,-0.2441406100988388,0.0,-0.2441406100988388,-0.0133056640625,-0.0150146484375,0.988037109375
1721179458.751,310,311,311,311,313,311,311,311,312,311,311,310,311,311,311,312,311,304,313,311,311,312,311,311,311,17.0,-32.0,31.0,-0.1220703050494194,0.0,-0.2441406100988388,-0.0130615234375,-0.0150146484375,0.9879150390625
1721179458.761,310,311,310,310,310,311,311,313,311,311,310,312,311,310,311,311,311,312,311,311,310,311,311,312,311,17.0,-32.0,31.0,0.0610351525247097,-0.0610351525247097,-0.2441406100988388,-0.012939453125,-0.0146484375,0.9876708984375
1721179458.771,311,311,311,311,311,313,311,313,311,313,312,311,311,311,311,311,310,311,312,312,311,311,312,310,311,17.0,-32.0,31.0,0.1220703050494194,-0.1220703050494194,-0.2441406100988388,-0.0135498046875,-0.0140380859375,0.98779296875
1721179458.781,310,310,310,310,311,311,311,310,313,311,311,311,311,309,310,310,312,311,311,311,311,312,311,311,312,17.0,-32.0,31.0,0.0,-0.1220703050494194,-0.2441406100988388,-0.0140380859375,-0.0142822265625,0.9871826171875
1721179458.791,311,311,310,310,310,312,310,311,311,311,310,310,310,311,311,311,311,311,311,311,313,312,310,310,312,17.0,-32.0,31.0,-0.1831054538488388,-0.0610351525247097,-0.2441406100988388,-0.01416015625,-0.014892578125,0.9862060546875
1721179458.801,310,310,311,311,310,310,311,311,312,312,311,310,311,310,311,311,310,311,311,311,311,311,311,311,313,17.0,-32.0,31.0,-0.1831054538488388,-0.0610351525247097,-0.1831054538488388,-0.01513671875,-0.014892578125,0.986572265625
1721179458.811,311,310,310,310,311,312,311,311,311,311,311,311,311,312,312,310,312,311,312,311,311,311,311,311,311,17.0,-32.0,31.0,-0.1831054538488388,-0.0610351525247097,-0.1831054538488388,-0.0159912109375,-0.0146484375,0.9869384765625
1721179458.821,311,310,310,310,311,312,312,313,311,311,311,311,311,310,311,311,311,311,311,311,311,311,311,311,311,17.0,-32.0,31.0,-0.1831054538488388,0.0,-0.2441406100988388,-0.015625,-0.014892578125,0.98779296875
1721179458.831,310,310,310,311,311,313,310,311,311,311,311,310,312,310,311,311,311,313,310,311,311,311,312,311,312,19.0,-35.0,37.0,-0.1831054538488388,0.0,-0.2441406100988388,-0.0147705078125,-0.01513671875,0.98828125
1721179458.841,310,311,310,310,310,311,311,310,311,313,312,305,310,311,310,311,312,310,311,311,311,312,311,311,311,19.0,-35.0,37.0,-0.2441406100988388,-0.0610351525247097,-0.2441406100988388,-0.01416015625,-0.0145263671875,0.9871826171875
1721179458.851,311,310,311,310,311,311,311,310,311,311,311,311,311,310,311,313,311,310,311,311,311,311,311,311,311,19.0,-35.0,37.0,-0.1831054538488388,-0.1220703050494194,-0.2441406100988388,-0.0137939453125,-0.01416015625,0.9859619140625
1721179458.861,311,310,310,310,311,310,311,313,311,311,311,311,311,311,312,312,311,311,311,310,311,313,311,311,311,19.0,-35.0,37.0,-0.0610351525247097,-0.1220703050494194,-0.2441406100988388,-0.0137939453125,-0.014892578125,0.9859619140625
1721179458.871,310,310,313,310,310,313,311,310,311,313,311,311,311,311,311,311,311,311,311,311,311,311,310,311,311,19.0,-35.0,37.0,0.0,-0.0610351525247097,-0.2441406100988388,-0.01416015625,-0.0157470703125,0.986328125
1721179458.881,310,311,310,310,311,311,311,311,311,313,313,311,312,308,313,312,310,311,311,311,311,311,310,311,311,19.0,-35.0,37.0,-0.0610351525247097,-0.0610351525247097,-0.2441406100988388,-0.0146484375,-0.015869140625,0.98681640625
1721179458.891,310,310,310,310,312,314,311,311,311,312,312,311,312,311,311,311,311,313,311,311,310,311,311,310,310,19.0,-35.0,37.0,-0.1220703050494194,-0.1220703050494194,-0.2441406100988388,-0.014892578125,-0.015380859375,0.987548828125
1721179458.901,310,311,310,311,311,311,311,311,301,311,312,311,311,311,311,311,311,312,311,313,311,311,312,311,313,19.0,-35.0,37.0,-0.1220703050494194,-0.0610351525247097,-0.2441406100988388,-0.014892578125,-0.0147705078125,0.9886474609375
1721179458.922,310,310,310,310,310,311,311,310,311,311,311,311,311,311,311,312,311,311,311,311,311,311,310,311,311,19.0,-35.0,37.0,-0.1831054538488388,-0.0610351525247097,-0.2441406100988388,-0.0142822265625,-0.01416015625,0.987548828125
1721179458.931,310,311,310,309,310,311,311,311,311,311,310,312,311,311,311,311,311,312,311,310,311,311,311,310,311,18.0,-31.0,33.0,-0.1831054538488388,-0.0610351525247097,-0.2441406100988388,-0.0140380859375,-0.0150146484375,0.9892578125
1721179458.941,309,310,310,310,311,312,311,311,311,311,311,311,311,311,311,313,310,311,312,312,310,310,312,311,312,18.0,-31.0,33.0,-0.0610351525247097,0.0,-0.2441406100988388,-0.013916015625,-0.014892578125,0.9891357421875
1721179458.951,310,311,310,310,310,311,300,310,311,311,311,310,311,311,311,312,311,311,311,311,311,310,310,311,312,18.0,-31.0,33.0,0.0610351525247097,-0.0610351525247097,-0.2441406100988388,-0.01416015625,-0.0145263671875,0.9871826171875
1721179458.961,310,312,310,310,310,311,311,309,310,310,311,312,311,310,311,311,310,313,311,311,313,311,311,311,311,18.0,-31.0,33.0,0.0,-0.0610351525247097,-0.2441406100988388,-0.01416015625,-0.0147705078125,0.9864501953125
1721179458.971,310,310,310,310,310,312,312,311,310,311,311,311,311,310,310,313,311,311,312,312,312,311,310,311,312,18.0,-31.0,33.0,-0.1831054538488388,-0.0610351525247097,-0.2441406100988388,-0.0145263671875,-0.0155029296875,0.987060546875
1721179458.991,310,310,310,311,310,312,311,311,312,311,311,311,311,311,311,312,311,311,310,311,311,311,311,311,311,18.0,-31.0,33.0,-0.2441406100988388,-0.0610351525247097,-0.1831054538488388,-0.0147705078125,-0.015869140625,0.9884033203125
1721179459.001,310,310,311,310,311,311,311,311,311,312,311,311,311,311,312,310,311,311,311,311,312,311,311,311,311,18.0,-31.0,33.0,-0.1220703050494194,-0.0610351525247097,-0.1831054538488388,-0.013916015625,-0.0155029296875,0.988525390625
1721179459.011,311,310,311,310,311,311,311,312,311,311,311,311,311,311,311,312,312,312,311,310,310,311,311,311,310,18.0,-31.0,33.0,0.0610351525247097,-0.0610351525247097,-0.2441406100988388,-0.013671875,-0.014892578125,0.987060546875
1721179459.021,310,310,310,312,311,312,311,310,310,311,311,310,311,308,311,312,311,311,311,310,311,311,311,312,311,18.0,-31.0,33.0,0.0,-0.0610351525247097,-0.2441406100988388,-0.01416015625,-0.01513671875,0.987060546875
1721179459.031,308,310,311,310,311,311,311,311,312,312,311,311,310,311,311,311,310,311,311,311,312,310,311,311,311,18.0,-31.0,33.0,-0.1220703050494194,-0.0610351525247097,-0.2441406100988388,-0.01416015625,-0.0152587890625,0.98779296875
1721179459.041,310,310,311,310,311,312,312,312,311,311,311,311,312,311,311,311,310,313,313,311,311,312,312,311,311,17.0,-32.0,32.0,-0.2441406100988388,-0.0610351525247097,-0.2441406100988388,-0.0142822265625,-0.0152587890625,0.987548828125
1721179459.051,310,311,311,310,311,310,311,312,311,310,311,312,311,311,311,311,313,311,311,310,312,311,311,311,310,17.0,-32.0,32.0,-0.1831054538488388,-0.1220703050494194,-0.2441406100988388,-0.014404296875,-0.0155029296875,0.9876708984375
1721179459.061,311,311,310,310,310,312,310,311,312,311,311,313,311,311,311,311,311,310,311,312,311,311,310,311,313,17.0,-32.0,32.0,0.0,-0.1220703050494194,-0.2441406100988388,-0.0145263671875,-0.01513671875,0.98828125
1721179459.071,310,311,310,311,310,311,313,313,311,311,313,311,311,311,311,311,311,312,310,311,310,311,311,312,312,17.0,-32.0,32.0,0.1220703050494194,-0.0610351525247097,-0.2441406100988388,-0.0150146484375,-0.0145263671875,0.9881591796875
1721179459.081,310,312,311,310,311,311,311,310,310,311,311,312,312,311,311,311,311,311,311,311,311,311,313,312,311,17.0,-32.0,32.0,-0.0610351525247097,-0.0610351525247097,-0.2441406100988388,-0.0150146484375,-0.0146484375,0.98779296875
1721179459.091,311,311,310,310,310,311,311,310,311,313,311,311,311,310,311,310,311,311,312,311,312,310,310,311,313,17.0,-32.0,32.0,-0.30517578125,0.0,-0.2441406100988388,-0.014404296875,-0.0155029296875,0.98828125
1721179459.101,310,310,311,309,310,311,311,312,312,312,311,311,311,312,311,311,311,311,311,310,311,312,311,311,312,17.0,-32.0,32.0,-0.3662109076976776,0.0,-0.2441406100988388,-0.0140380859375,-0.01611328125,0.9888916015625
1721179459.111,310,310,310,310,310,311,311,310,311,310,311,310,311,311,311,311,311,311,310,311,310,312,311,311,313,17.0,-32.0,32.0,-0.1831054538488388,-0.0610351525247097,-0.1831054538488388,-0.013916015625,-0.015380859375,0.9884033203125
1721179459.121,311,311,310,310,311,311,311,311,312,312,310,311,312,311,311,310,311,311,311,311,310,311,311,310,310,17.0,-32.0,32.0,-0.0610351525247097,-0.0610351525247097,-0.1831054538488388,-0.013671875,-0.0146484375,0.9879150390625
1721179459.131,309,311,310,311,311,311,311,311,311,311,313,311,310,313,311,311,311,311,311,311,311,310,311,311,311,17.0,-32.0,32.0,0.0,-0.0610351525247097,-0.2441406100988388,-0.0135498046875,-0.0147705078125,0.988037109375
1721179459.141,310,310,311,311,310,311,311,311,311,310,311,310,311,311,310,313,311,311,311,310,313,311,312,312,310,19.0,-33.0,29.0,-0.0610351525247097,-0.1220703050494194,-0.2441406100988388,-0.0135498046875,-0.0155029296875,0.988037109375
