"// DN: 108, SN: 35"
Timestamp,P1,P2,P3,P4,P5,P6,P7,P8,P9,P10,P11,P12,P13,P14,P15,P16,P17,P18,P19,P20,P21,P22,P23,P24,P25,P26,P27,P28,P29,P30,P31,P32,P33,P34,P35,Mag_x,Mag_y,Mag_z,Gyro_x,Gyro_y,Gyro_z,Acc_x,Acc_y,Acc_z
1718353643.401,306,309,306,306,306,309,309,309,309,309,309,307,306,309,309,307,309,309,309,309,310,306,309,309,309,311,311,310,311,310,306,305,306,306,306,-9.0,8.0,33.0,0.54931640625,0.30517578125,-0.30517578125,0.114990234375,0.1973876953125,0.966796875
1718353643.411,306,309,309,306,309,306,309,309,310,309,309,309,309,309,306,309,311,310,310,309,309,309,309,310,309,309,310,311,311,309,307,306,309,306,306,-9.0,8.0,33.0,0.54931640625,0.6713866591453552,0.0,0.114990234375,0.1973876953125,0.966796875
1718353643.421,307,308,306,306,309,306,309,307,307,309,307,309,309,309,307,309,307,309,306,309,309,309,309,309,309,310,311,311,311,309,305,308,307,306,309,-9.0,8.0,33.0,0.54931640625,0.6713866591453552,0.0,0.1168212890625,0.198486328125,0.9681396484375
1718353643.431,306,306,309,310,309,309,309,309,309,310,309,309,306,309,309,309,309,309,310,309,309,309,309,309,309,311,311,309,311,310,306,306,309,306,306,-9.0,8.0,33.0,1.15966796875,0.1831054538488388,0.6713866591453552,0.109619140625,0.19287109375,0.9659423828125
1718353643.441,307,307,308,308,309,309,310,309,306,309,309,309,309,306,306,309,310,309,309,309,309,309,309,306,309,310,311,311,311,311,306,306,308,306,306,-10.0,5.0,31.0,2.3193359375,-0.0610351525247097,1.5869139432907104,0.109619140625,0.19287109375,0.9659423828125
1718353643.451,309,298,306,309,306,306,307,310,309,309,306,309,306,309,310,309,309,309,309,309,309,309,309,310,310,311,309,309,310,311,309,306,306,307,309,-10.0,5.0,31.0,2.3193359375,-0.0610351525247097,1.5869139432907104,0.1051025390625,0.1888427734375,0.9632568359375
1718353643.461,309,309,306,309,310,309,309,307,309,308,309,309,306,306,309,310,311,309,309,309,308,309,311,311,310,310,311,309,311,310,306,306,309,306,306,-10.0,5.0,31.0,2.929687261581421,0.2441406100988388,1.5258787870407104,0.1016845703125,0.183349609375,0.9598388671875
1718353643.471,305,309,309,307,306,306,309,309,309,309,309,309,309,310,306,309,309,310,309,309,309,309,309,311,309,310,311,309,311,309,306,307,309,307,309,-10.0,5.0,31.0,5.554198741912842,-0.1831054538488388,1.3427733182907104,0.1016845703125,0.183349609375,0.9598388671875
1718353643.481,306,306,306,305,306,310,309,309,309,309,309,309,307,309,309,309,309,309,306,306,309,309,309,305,300,309,309,311,311,311,306,305,305,309,307,-10.0,5.0,31.0,5.554198741912842,-0.1831054538488388,1.3427733182907104,0.1029052734375,0.1864013671875,0.9605712890625
1718353643.491,306,309,306,309,309,309,309,306,309,309,309,309,309,306,309,308,309,309,309,309,309,306,306,309,307,311,311,309,311,310,309,313,307,305,306,-10.0,5.0,31.0,7.080077648162842,-0.7324218153953552,1.4648436307907104,0.1058349609375,0.1915283203125,0.968017578125
1718353643.501,305,307,306,306,309,307,306,305,309,309,306,309,309,309,306,311,309,309,309,309,309,308,309,310,306,309,309,311,311,309,306,306,306,307,305,-10.0,5.0,31.0,8.36181640625,-1.5258787870407104,1.3427733182907104,0.1058349609375,0.1915283203125,0.968017578125
1718353643.511,307,306,306,306,309,310,310,307,306,309,309,307,309,306,309,310,309,309,309,309,309,309,309,309,310,313,311,311,311,309,306,308,306,306,308,-10.0,5.0,31.0,8.36181640625,-1.5258787870407104,1.3427733182907104,0.1060791015625,0.1922607421875,0.9720458984375
1718353643.521,306,309,306,309,307,310,311,309,310,311,307,309,306,309,309,310,309,309,309,309,309,309,310,309,309,311,311,309,311,310,309,306,306,305,309,-10.0,5.0,31.0,8.056640625,-1.9531248807907104,1.03759765625,0.10302734375,0.1951904296875,0.975341796875
1718353643.531,305,309,306,309,306,306,306,309,309,309,307,309,309,309,306,309,309,309,310,309,309,309,310,309,309,309,311,311,311,310,306,309,308,306,306,-10.0,5.0,31.0,5.187987804412842,-0.9765624403953552,-0.1831054538488388,0.10302734375,0.1951904296875,0.975341796875
1718353643.542,306,306,307,306,306,309,306,309,309,309,309,309,309,309,309,309,309,309,309,309,307,309,309,309,309,311,311,310,311,311,306,309,309,309,306,-7.0,5.0,33.0,3.479003667831421,-0.6713866591453552,-0.7934569716453552,0.10400390625,0.1981201171875,0.9742431640625
1718353643.551,309,308,306,306,309,309,309,309,309,309,309,309,306,309,308,309,309,309,309,309,309,309,306,309,309,310,311,309,310,309,306,306,306,297,306,-7.0,5.0,33.0,3.479003667831421,-0.6713866591453552,-0.7934569716453552,0.10595703125,0.2039794921875,0.970947265625
1718353643.561,306,309,309,307,306,306,306,307,310,309,309,309,306,309,309,306,309,310,311,306,310,309,309,309,309,311,310,311,311,310,307,306,309,306,309,-7.0,5.0,33.0,0.6103515625,-0.4882812201976776,-1.8920897245407104,0.10595703125,0.2039794921875,0.970947265625
1718353643.571,306,309,306,309,309,307,309,309,309,307,307,306,309,309,309,309,309,309,311,309,309,310,309,310,309,311,311,311,311,311,306,305,306,306,309,-7.0,5.0,33.0,0.6103515625,-0.4882812201976776,-1.8920897245407104,0.107666015625,0.2076416015625,0.96728515625
1718353643.581,306,309,306,306,306,309,309,306,309,306,309,307,306,309,309,309,309,309,309,309,308,306,310,307,306,309,310,311,309,307,306,305,309,306,306,-7.0,5.0,33.0,-0.4882812201976776,-0.1831054538488388,-1.7700194120407104,0.1072998046875,0.2099609375,0.9637451171875
1718353643.591,306,309,310,306,306,309,309,306,309,309,309,306,309,309,307,311,309,309,309,309,310,309,309,309,309,311,311,310,310,311,306,306,306,306,306,-7.0,5.0,33.0,-1.0986328125,0.0,-0.9155272841453552,0.1072998046875,0.2099609375,0.9637451171875
1718353643.602,306,306,305,309,309,307,309,310,309,309,306,306,306,309,309,309,309,309,309,309,309,309,309,309,309,311,311,309,306,311,306,306,306,307,306,-7.0,5.0,33.0,-1.0986328125,0.0,-0.9155272841453552,0.110107421875,0.2109375,0.9569091796875
1718353643.612,307,309,309,308,306,307,307,311,310,309,306,300,309,309,309,309,309,309,309,309,309,309,309,309,309,311,311,311,309,309,306,306,309,307,306,-7.0,5.0,33.0,-1.0986328125,0.7934569716453552,-0.2441406100988388,0.1103515625,0.2083740234375,0.955810546875
1718353643.621,306,307,309,309,309,309,307,307,309,309,307,309,306,306,306,309,307,309,309,309,307,311,307,309,309,309,311,309,310,309,306,306,305,306,306,-7.0,5.0,33.0,-0.7934569716453552,1.0986328125,0.0610351525247097,0.1103515625,0.2083740234375,0.955810546875
1718353643.631,306,309,306,306,306,309,309,306,309,309,300,307,309,306,309,310,309,310,310,309,309,309,310,311,309,310,311,309,311,310,306,306,306,306,306,-7.0,5.0,33.0,-0.7934569716453552,1.0986328125,0.0610351525247097,0.1097412109375,0.2039794921875,0.9586181640625
1718353643.641,306,308,309,306,306,309,309,309,309,307,309,309,309,307,309,310,309,310,309,309,309,309,309,306,308,310,310,309,310,311,306,306,306,306,306,-8.0,4.0,32.0,-0.30517578125,0.9765624403953552,0.1220703050494194,0.1075439453125,0.2022705078125,0.9576416015625
1718353643.651,309,306,307,309,306,306,309,309,309,309,309,309,309,309,309,309,306,309,309,309,306,306,307,309,311,311,309,309,311,311,305,306,309,306,306,-8.0,4.0,32.0,-0.0610351525247097,0.6103515625,-0.1831054538488388,0.1075439453125,0.2022705078125,0.9576416015625
1718353643.661,306,300,306,306,310,306,309,309,309,309,306,306,309,309,311,309,306,307,309,309,309,307,309,309,311,310,310,310,309,311,306,309,308,306,306,-8.0,4.0,32.0,-0.0610351525247097,0.6103515625,-0.1831054538488388,0.104736328125,0.2025146484375,0.95458984375
1718353643.671,306,309,306,307,309,309,306,306,309,309,309,307,306,311,309,309,309,309,309,309,307,310,309,309,309,311,310,309,310,311,306,306,306,306,306,-8.0,4.0,32.0,0.7934569716453552,0.3662109076976776,-0.8544921278953552,0.10595703125,0.20361328125,0.9564208984375
1718353643.681,305,309,309,309,306,309,307,309,309,309,309,306,309,309,309,306,309,309,309,307,309,309,310,310,309,301,310,310,310,311,306,305,306,306,306,-8.0,4.0,32.0,1.4648436307907104,0.1220703050494194,-0.8544921278953552,0.10595703125,0.20361328125,0.9564208984375
1718353643.691,306,309,306,307,309,299,298,306,298,309,306,306,310,309,306,309,330,311,309,309,306,309,309,309,309,311,310,310,309,310,305,306,306,307,306,-8.0,4.0,32.0,2.0751953125,-0.1220703050494194,-0.54931640625,0.1094970703125,0.2059326171875,0.9632568359375
1718353643.701,306,306,306,309,306,309,309,306,296,307,306,306,308,309,309,309,309,309,310,309,309,309,309,298,309,311,309,311,310,311,306,307,308,306,306,-8.0,4.0,32.0,2.197265625,-0.0610351525247097,0.0,0.1099853515625,0.2056884765625,0.964599609375
1718353643.711,306,309,307,309,306,309,309,310,309,309,307,307,309,306,307,310,309,309,309,310,309,309,309,309,309,311,309,310,309,311,305,309,305,308,309,-8.0,4.0,32.0,2.0751953125,0.1220703050494194,0.4882812201976776,0.1099853515625,0.2056884765625,0.964599609375
1718353643.721,306,309,306,306,307,309,310,306,306,307,309,306,307,306,309,309,309,307,309,307,309,309,309,310,310,311,310,312,310,306,306,306,309,305,306,-8.0,4.0,32.0,2.0751953125,0.1220703050494194,0.4882812201976776,0.109130859375,0.2020263671875,0.960205078125
1718353643.731,306,306,306,309,309,309,309,309,310,307,307,309,306,306,310,309,307,307,309,310,309,310,309,309,310,309,311,309,309,311,306,305,309,307,306,-8.0,4.0,32.0,2.38037109375,-0.1220703050494194,0.30517578125,0.1090087890625,0.20361328125,0.960693359375
1718353643.741,306,308,307,309,305,307,309,309,309,309,308,309,309,307,309,309,310,311,309,306,309,309,309,309,307,310,310,310,309,311,306,307,306,305,308,-10.0,10.0,32.0,2.807616949081421,-0.2441406100988388,-0.1220703050494194,0.1090087890625,0.20361328125,0.960693359375
1718353643.751,306,306,309,306,309,310,306,309,309,309,309,309,309,307,309,309,306,309,309,309,309,309,311,309,309,309,309,309,310,311,306,306,306,307,305,-10.0,10.0,32.0,2.807616949081421,-0.2441406100988388,-0.1220703050494194,0.109619140625,0.2088623046875,0.9678955078125
1718353643.761,306,309,306,307,306,309,309,306,306,309,309,310,306,306,306,309,309,309,300,306,309,309,307,309,309,309,311,311,311,310,309,306,306,309,306,-10.0,10.0,32.0,2.01416015625,-0.4272460639476776,-0.0610351525247097,0.1087646484375,0.20849609375,0.9669189453125
1718353643.771,306,309,309,307,307,307,307,306,309,309,309,309,309,309,306,309,309,309,307,309,309,309,310,309,306,311,311,310,311,311,306,309,306,306,306,-10.0,10.0,32.0,1.15966796875,-0.4882812201976776,0.2441406100988388,0.1087646484375,0.20849609375,0.9669189453125
1718353643.781,306,306,309,305,309,307,309,307,307,306,309,309,309,309,306,310,310,309,309,309,309,309,309,309,309,310,310,310,311,310,306,306,306,309,309,-10.0,10.0,32.0,1.15966796875,-0.4882812201976776,0.2441406100988388,0.104736328125,0.2056884765625,0.96044921875
1718353643.791,306,305,307,309,295,300,300,309,309,309,306,305,309,309,309,309,309,309,309,309,309,307,309,309,309,311,300,310,311,311,306,306,307,306,309,-10.0,10.0,32.0,-0.1220703050494194,1.15966796875,0.1831054538488388,0.1031494140625,0.203857421875,0.96044921875
1718353643.801,306,305,309,309,306,309,306,306,310,309,300,310,309,307,300,309,309,309,309,309,297,309,298,309,296,298,311,311,300,300,296,306,306,306,307,-10.0,10.0,32.0,0.1220703050494194,1.220703125,-0.0610351525247097,0.1031494140625,0.20068359375,0.962646484375
1718353643.811,306,309,309,309,309,309,309,309,310,309,309,309,306,309,309,306,310,309,307,309,306,306,310,309,309,311,311,311,309,309,309,305,309,306,306,-10.0,10.0,32.0,0.1220703050494194,1.220703125,-0.0610351525247097,0.1038818359375,0.198486328125,0.96337890625
1718353643.821,306,309,306,309,309,309,309,306,307,309,309,309,309,309,309,309,309,306,310,311,310,309,309,309,309,310,311,309,311,311,306,305,309,305,306,-10.0,10.0,32.0,1.6479490995407104,-0.1220703050494194,-0.1831054538488388,0.1033935546875,0.1998291015625,0.9635009765625
1718353643.831,306,309,309,306,309,307,309,310,309,309,309,309,309,309,307,309,311,311,309,309,309,309,310,309,309,310,310,310,310,311,306,306,306,306,306,-10.0,10.0,32.0,2.197265625,-0.6713866591453552,-0.30517578125,0.1033935546875,0.1998291015625,0.9635009765625
1718353643.841,306,306,306,309,306,307,308,306,309,307,309,309,310,309,309,309,309,309,309,309,310,309,310,307,310,311,311,310,309,311,305,307,309,306,307,-10.0,6.0,30.0,2.197265625,-0.6713866591453552,-0.30517578125,0.106689453125,0.206298828125,0.9600830078125
1718353643.852,306,309,307,306,309,307,309,309,310,309,309,309,309,307,305,310,311,310,307,310,309,309,307,306,309,311,311,311,310,311,305,307,306,306,307,-10.0,6.0,30.0,2.3193359375,-0.6713866591453552,-0.8544921278953552,0.109619140625,0.21142578125,0.957275390625
1718353643.861,306,309,309,306,307,306,306,309,309,309,309,309,309,309,306,307,311,309,309,309,309,309,309,309,309,311,309,310,311,310,306,306,307,305,306,-10.0,6.0,30.0,2.25830078125,-0.1831054538488388,-0.6713866591453552,0.109619140625,0.21142578125,0.957275390625
1718353643.871,309,306,306,309,307,310,306,309,310,309,309,309,310,306,307,306,309,309,309,309,309,309,309,310,309,311,312,309,311,309,309,307,306,306,306,-10.0,6.0,30.0,2.25830078125,-0.1831054538488388,-0.6713866591453552,0.10986328125,0.2122802734375,0.9591064453125
1718353643.881,307,306,306,309,306,310,309,306,306,310,309,309,307,309,309,310,310,309,310,310,309,309,311,310,309,310,311,310,310,311,306,306,306,306,306,-10.0,6.0,30.0,2.990722417831421,-0.6103515625,0.1220703050494194,0.1107177734375,0.2122802734375,0.96240234375
1718353643.891,306,307,309,309,306,309,307,309,309,309,309,309,309,309,309,306,309,309,310,309,310,309,311,309,309,309,310,309,311,311,306,306,309,309,306,-10.0,6.0,30.0,2.929687261581421,-0.1220703050494194,0.4272460639476776,0.1107177734375,0.2122802734375,0.96240234375
1718353643.901,309,309,306,309,306,310,309,307,309,309,307,309,307,309,306,309,309,309,309,309,311,309,309,307,309,311,310,311,310,309,306,305,307,305,306,-10.0,6.0,30.0,2.929687261581421,-0.1220703050494194,0.4272460639476776,0.1063232421875,0.2110595703125,0.9666748046875
1718353643.911,307,309,307,306,309,309,309,308,310,309,306,309,309,309,309,309,311,309,309,306,309,311,309,310,309,309,311,311,310,309,306,306,309,306,309,-10.0,6.0,30.0,2.746581792831421,0.30517578125,0.6103515625,0.105224609375,0.2110595703125,0.96826171875
1718353643.921,308,309,306,309,307,309,306,306,309,309,309,306,309,309,307,310,310,309,306,309,310,309,307,310,306,311,310,312,311,310,306,306,306,306,306,-10.0,6.0,30.0,3.173827886581421,-0.9155272841453552,0.6713866591453552,0.1024169921875,0.2117919921875,0.9683837890625
1718353643.931,310,306,309,309,309,309,307,309,309,309,309,309,309,306,309,310,310,306,307,309,310,309,309,309,309,311,309,311,310,309,307,305,309,305,306,-10.0,6.0,30.0,3.173827886581421,-0.9155272841453552,0.6713866591453552,0.1005859375,0.2109375,0.9656982421875
1718353643.941,306,309,306,307,306,309,307,306,310,309,308,306,306,310,307,310,309,309,309,309,309,309,309,309,309,309,310,311,311,310,309,305,306,306,306,-10.0,6.0,27.0,2.563476324081421,-2.0751953125,0.4272460639476776,0.1004638671875,0.208984375,0.9599609375
1718353643.951,307,309,309,309,307,306,306,309,309,309,309,309,309,309,307,310,309,309,310,309,309,309,307,309,308,311,311,309,310,311,309,307,306,306,306,-10.0,6.0,27.0,1.0986328125,-0.7934569716453552,-0.0610351525247097,0.100830078125,0.206298828125,0.9542236328125
1718353643.961,306,300,306,306,305,309,309,311,309,309,306,309,306,306,306,309,307,309,310,309,310,309,310,310,309,311,310,311,309,310,309,309,306,306,306,-10.0,6.0,27.0,-0.30517578125,0.6713866591453552,-0.6713866591453552,0.1026611328125,0.2049560546875,0.950927734375
1718353643.971,306,309,309,309,309,309,309,300,300,309,307,309,307,309,307,309,309,309,309,309,310,310,309,307,307,309,309,309,309,310,307,306,309,306,306,-10.0,6.0,27.0,-0.7324218153953552,1.220703125,-0.9765624403953552,0.1055908203125,0.2059326171875,0.9498291015625
1718353643.981,306,309,309,306,306,307,309,309,310,309,309,306,309,309,309,309,309,310,309,309,309,309,309,309,306,309,309,311,311,311,306,306,307,307,306,-10.0,6.0,27.0,-0.1831054538488388,0.9765624403953552,-0.8544921278953552,0.1070556640625,0.209228515625,0.9522705078125
1718353643.991,306,309,306,309,305,310,309,309,309,306,306,309,309,309,306,311,309,310,309,310,309,309,310,309,309,311,310,311,311,310,309,309,308,305,307,-10.0,6.0,27.0,0.7934569716453552,0.6713866591453552,-0.4882812201976776,0.106201171875,0.212646484375,0.9569091796875
1718353644.001,309,309,306,309,307,309,309,309,307,307,309,309,307,306,309,310,309,309,309,310,309,310,309,309,309,313,309,310,309,311,306,306,305,309,306,-10.0,6.0,27.0,1.6479490995407104,0.30517578125,-0.0610351525247097,0.105712890625,0.2149658203125,0.9615478515625
1718353644.011,305,307,307,309,307,309,306,311,309,309,309,309,309,309,309,309,309,309,313,310,309,309,309,309,309,311,311,310,310,311,306,306,306,306,306,-10.0,6.0,27.0,2.01416015625,0.30517578125,0.1220703050494194,0.1058349609375,0.2169189453125,0.9661865234375
1718353644.021,306,307,309,306,309,309,309,306,310,310,309,309,309,309,309,309,309,309,309,309,309,309,309,311,311,311,310,311,311,310,307,305,305,309,309,-10.0,6.0,27.0,1.4648436307907104,0.9155272841453552,0.1220703050494194,0.1051025390625,0.215087890625,0.9686279296875
1718353644.031,306,309,306,307,309,309,309,309,309,309,309,307,309,309,309,309,311,307,309,309,311,309,310,309,309,311,311,309,311,310,309,307,306,305,308,-10.0,6.0,27.0,0.4272460639476776,1.5869139432907104,-0.1831054538488388,0.1043701171875,0.210205078125,0.969482421875
1718353644.041,306,307,306,309,306,309,309,309,309,309,309,310,309,310,306,306,310,309,309,306,309,311,309,309,309,310,311,311,311,310,309,307,306,309,305,-9.0,8.0,33.0,-0.4272460639476776,1.7089842557907104,-0.7934569716453552,0.1048583984375,0.208251953125,0.9715576171875
1718353644.051,309,306,305,306,309,308,307,309,309,310,306,309,309,309,309,309,309,309,310,309,311,309,310,309,311,311,309,310,311,311,307,306,306,309,309,-9.0,8.0,33.0,-0.7324218153953552,1.5869139432907104,-1.3427733182907104,0.10693359375,0.21142578125,0.973876953125
1718353644.061,309,309,306,309,309,310,310,306,309,311,299,306,309,310,310,309,309,310,309,307,306,309,309,309,310,309,310,310,311,311,306,307,306,306,309,-9.0,8.0,33.0,-0.7324218153953552,1.8310545682907104,-1.4038084745407104,0.109619140625,0.21630859375,0.97607421875
1718353644.071,308,309,309,309,309,306,306,309,309,309,311,309,309,311,308,309,309,309,309,310,309,309,309,310,307,309,311,311,310,309,306,306,306,309,306,-9.0,8.0,33.0,-1.220703125,2.563476324081421,-1.220703125,0.1103515625,0.218017578125,0.9810791015625
1718353644.081,306,307,306,309,309,309,309,309,309,309,309,307,309,309,309,310,309,306,309,309,309,309,310,309,309,310,311,311,310,309,306,309,306,306,309,-9.0,8.0,33.0,-3.234863042831421,4.69970703125,-1.2817381620407104,0.10595703125,0.2152099609375,0.9864501953125
1718353644.091,306,306,309,310,309,309,309,306,309,307,309,309,309,309,310,310,311,309,310,310,310,309,311,309,311,311,310,309,309,309,309,309,306,305,306,-9.0,8.0,33.0,-7.751464366912842,9.27734375,-1.7700194120407104,0.0958251953125,0.208984375,0.986083984375
1718353644.101,305,307,306,309,306,309,300,309,309,309,308,309,306,306,307,309,309,307,309,310,311,309,306,309,309,311,310,311,311,309,309,306,309,306,309,-9.0,8.0,33.0,-13.671874046325684,14.648436546325684,-2.563476324081421,0.0850830078125,0.19921875,0.97900390625
1718353644.111,306,307,306,309,310,309,310,309,309,309,309,309,307,306,309,310,310,309,308,309,309,309,309,310,309,311,310,311,311,309,306,306,306,305,309,-9.0,8.0,33.0,-18.00537109375,17.02880859375,-3.540038824081421,0.0797119140625,0.18896484375,0.967529296875
1718353644.121,306,307,306,307,309,309,310,309,309,309,309,307,307,309,309,309,309,309,309,309,310,306,310,309,309,311,309,309,310,309,306,307,306,306,309,-9.0,8.0,33.0,-18.24951171875,14.465331077575684,-4.33349609375,0.079833984375,0.1834716796875,0.9559326171875
1718353644.131,306,309,309,306,306,309,309,310,310,309,309,309,307,309,309,309,309,311,310,309,311,311,309,310,300,310,311,309,309,311,309,306,308,306,306,-9.0,8.0,33.0,-15.014647483825684,8.9111328125,-4.638671875,0.0830078125,0.1846923828125,0.94921875
1718353644.141,306,309,307,306,309,309,310,309,311,309,309,309,309,306,309,309,310,309,309,309,309,311,310,309,310,310,311,311,311,310,306,306,309,306,309,-8.0,10.0,33.0,-10.803221702575684,4.5166015625,-4.57763671875,0.0877685546875,0.1907958984375,0.9510498046875
1718353644.151,306,309,306,309,306,309,309,306,311,309,309,306,309,309,309,311,309,309,310,309,309,310,309,309,309,311,313,310,311,312,306,309,309,306,306,-8.0,10.0,33.0,-7.629394054412842,2.990722417831421,-4.21142578125,0.0926513671875,0.1962890625,0.9581298828125
1718353644.161,306,309,309,306,309,309,309,309,309,309,309,310,309,309,306,309,309,309,307,310,309,309,309,310,309,311,311,311,309,309,306,309,306,305,306,-8.0,10.0,33.0,-5.981444835662842,2.807616949081421,-3.723144292831421,0.09228515625,0.1978759765625,0.962890625
1718353644.171,309,309,309,309,309,309,309,309,306,307,309,309,308,309,309,309,309,309,309,309,309,309,311,310,309,311,313,311,311,310,306,306,309,306,305,-8.0,10.0,33.0,-4.7607421875,1.3427733182907104,-3.662109136581421,0.0892333984375,0.1959228515625,0.9622802734375
1718353644.181,307,309,309,306,306,309,309,309,309,309,309,306,306,311,309,311,310,310,309,309,310,310,309,309,309,311,311,310,311,311,306,307,305,306,307,-8.0,10.0,33.0,-3.051757574081421,-2.25830078125,-3.967284917831421,0.090087890625,0.1939697265625,0.9586181640625
1718353644.191,306,309,309,309,306,309,306,309,309,309,309,309,309,309,309,309,309,311,311,309,309,309,309,309,309,311,311,311,311,309,306,306,306,305,309,-8.0,10.0,33.0,-0.7934569716453552,-6.652831554412842,-4.21142578125,0.0938720703125,0.1951904296875,0.95556640625
1718353644.201,306,309,306,309,306,307,309,307,306,309,309,309,306,307,309,309,309,309,309,309,311,309,310,309,309,311,312,310,311,309,307,309,306,305,306,-8.0,10.0,33.0,1.4038084745407104,-9.82666015625,-4.08935546875,0.097412109375,0.198974609375,0.9541015625
1718353644.211,306,306,306,306,309,311,309,310,306,309,306,309,309,309,309,309,309,310,309,310,309,309,309,309,309,309,309,307,311,311,306,307,305,305,306,-8.0,10.0,33.0,2.868652105331421,-10.986327171325684,-3.601073980331421,0.0980224609375,0.2025146484375,0.956787109375
1718353644.221,309,309,306,307,309,308,306,311,310,309,309,310,309,309,309,309,310,309,309,309,309,310,309,309,309,309,313,311,311,309,306,306,306,306,306,-8.0,10.0,33.0,3.112792730331421,-10.131834983825684,-2.990722417831421,0.0955810546875,0.2047119140625,0.96484375
1718353644.231,306,309,306,309,309,310,307,307,311,310,309,309,309,309,307,311,311,309,306,310,309,311,309,310,309,311,313,311,309,311,309,306,306,306,306,-8.0,10.0,33.0,2.01416015625,-7.507323741912842,-2.563476324081421,0.09521484375,0.2054443359375,0.971923828125
1718353644.241,309,309,309,307,309,309,307,306,310,309,309,309,306,309,309,310,309,306,300,309,310,310,310,309,307,310,310,311,310,311,308,306,309,306,307,-10.0,8.0,31.0,-0.30517578125,-4.2724609375,-2.44140625,0.098876953125,0.205322265625,0.973876953125
1718353644.251,309,306,309,309,309,309,309,309,309,309,309,309,309,309,306,309,311,309,307,309,309,309,309,306,309,311,311,311,309,310,306,306,306,306,309,-10.0,8.0,31.0,-2.929687261581421,-1.8920897245407104,-2.25830078125,0.1019287109375,0.2066650390625,0.9742431640625
1718353644.261,307,309,306,308,307,309,309,310,306,310,309,309,309,306,309,309,311,309,310,309,309,309,309,309,306,309,311,311,311,311,307,306,306,309,306,-10.0,8.0,31.0,-4.94384765625,-0.9155272841453552,-1.7700194120407104,0.1033935546875,0.2091064453125,0.9761962890625
1718353644.271,309,306,307,306,306,309,309,310,310,309,310,309,309,309,307,310,310,306,311,310,309,310,309,309,310,311,313,309,311,310,307,309,306,309,306,-10.0,8.0,31.0,-5.981444835662842,-1.15966796875,-1.0986328125,0.104736328125,0.2117919921875,0.9803466796875
1718353644.281,307,306,309,307,306,306,310,309,311,309,309,307,309,309,309,309,309,309,309,309,309,311,309,309,309,310,311,309,310,311,306,309,306,306,309,-10.0,8.0,31.0,-6.286620616912842,-2.3193359375,-0.3662109076976776,0.1060791015625,0.215087890625,0.987548828125
1718353644.291,306,307,305,309,310,310,310,309,307,310,309,309,306,309,309,310,309,309,310,309,310,310,311,311,309,310,310,310,311,310,307,307,309,306,306,-10.0,8.0,31.0,-6.347655773162842,-3.967284917831421,0.6713866591453552,0.107666015625,0.21826171875,0.994873046875
1718353644.301,307,306,307,306,309,309,309,306,300,309,306,309,309,309,309,306,309,309,309,309,309,309,307,307,306,311,311,309,310,309,306,309,309,306,306,-10.0,8.0,31.0,-6.835937023162842,-5.371093273162842,1.9531248807907104,0.106689453125,0.2198486328125,0.9971923828125
1718353644.311,309,310,309,309,309,308,306,309,307,309,309,306,309,307,309,309,306,306,309,310,309,305,309,306,309,311,309,311,311,311,306,305,306,306,307,-10.0,8.0,31.0,-7.629394054412842,-7.263183116912842,3.112792730331421,0.103759765625,0.21875,0.9962158203125
1718353644.321,309,309,306,305,307,309,309,309,309,309,309,310,306,306,309,309,309,307,311,309,311,309,311,309,310,311,309,310,309,311,306,306,306,308,306,-10.0,8.0,31.0,-7.507323741912842,-11.535643577575684,4.0283203125,0.103515625,0.215087890625,0.9952392578125
1718353644.331,306,309,309,309,306,310,311,309,309,309,309,307,306,309,309,310,311,309,309,309,311,309,310,309,309,309,311,311,311,310,308,306,309,306,305,-10.0,8.0,31.0,-5.981444835662842,-18.12744140625,4.82177734375,0.10546875,0.2110595703125,0.9925537109375
1718353644.341,306,309,309,309,307,308,308,308,309,309,306,309,309,309,309,309,309,308,309,306,309,309,307,309,309,309,311,309,310,309,306,307,306,308,305,-9.0,7.0,29.0,-4.2724609375,-24.291990280151367,5.554198741912842,0.106689453125,0.2064208984375,0.98486328125
1718353644.351,307,309,309,305,309,307,309,309,309,309,309,309,306,306,309,309,309,307,309,309,309,309,309,309,309,312,309,311,311,310,306,309,305,306,307,-9.0,7.0,29.0,-3.906249761581421,-27.221677780151367,5.920409679412842,0.1092529296875,0.198974609375,0.9747314453125
1718353644.361,309,306,306,307,305,309,310,307,309,309,309,309,306,309,309,309,309,306,309,307,309,306,309,309,309,310,309,311,311,310,309,308,300,309,307,-9.0,7.0,29.0,-4.94384765625,-26.672361373901367,5.859374523162842,0.1143798828125,0.1895751953125,0.968017578125
1718353644.371,309,309,309,309,309,310,306,309,306,310,309,309,309,309,309,309,309,311,309,309,309,307,309,309,309,310,309,311,310,311,309,307,306,307,306,-9.0,7.0,29.0,-6.164550304412842,-24.353025436401367,5.920409679412842,0.121826171875,0.1806640625,0.96484375
1718353644.381,306,307,308,305,307,309,309,306,306,309,306,306,306,308,309,310,307,307,309,309,310,309,310,309,306,311,310,311,311,310,306,306,307,306,306,-9.0,7.0,29.0,-6.652831554412842,-21.728513717651367,6.652831554412842,0.1309814453125,0.173828125,0.9615478515625
1718353644.391,306,309,309,309,309,309,310,306,309,309,309,309,306,310,309,309,310,309,310,309,309,309,309,309,309,310,310,311,311,311,306,306,309,306,306,-9.0,7.0,29.0,-6.530761241912842,-19.10400390625,7.385253429412842,0.1378173828125,0.1712646484375,0.9564208984375
1718353644.401,306,309,306,309,306,309,306,306,309,309,309,307,309,309,306,308,309,309,309,309,309,309,309,309,309,310,310,309,311,311,306,307,306,306,306,-9.0,7.0,29.0,-6.469726085662842,-16.41845703125,7.873534679412842,0.1434326171875,0.1724853515625,0.9510498046875
1718353644.411,307,307,306,306,309,309,309,306,309,310,309,307,306,309,306,309,310,309,309,309,311,309,309,309,309,311,311,310,311,309,306,306,306,305,306,-9.0,7.0,29.0,-6.835937023162842,-13.549803733825684,8.48388671875,0.150146484375,0.1732177734375,0.9476318359375
1718353644.421,309,307,307,309,309,309,310,307,306,309,309,309,308,309,309,309,310,307,309,309,311,309,309,309,310,311,311,307,309,310,306,306,306,306,306,-9.0,7.0,29.0,-7.690429210662842,-9.765625,9.09423828125,0.1531982421875,0.1707763671875,0.94580078125
1718353644.431,306,307,309,309,309,309,309,309,311,309,306,306,309,309,306,306,307,309,309,307,309,309,309,309,309,310,310,311,309,306,306,309,306,306,305,-9.0,7.0,29.0,-8.6669921875,-5.187987804412842,9.6435546875,0.1500244140625,0.166259765625,0.94482421875
1718353644.441,309,309,309,307,307,309,309,309,309,309,309,310,306,309,308,309,309,309,309,309,309,307,309,309,309,311,311,311,310,311,306,306,309,306,306,-7.0,5.0,29.0,-9.033203125,-1.6479490995407104,10.192870140075684,0.1451416015625,0.1612548828125,0.9456787109375
1718353644.451,306,310,307,309,307,309,309,309,310,309,310,309,306,309,309,309,309,309,309,309,310,307,309,309,309,310,311,309,311,310,306,306,309,305,307,-7.0,5.0,29.0,-8.544921875,0.1220703050494194,10.375975608825684,0.1412353515625,0.1573486328125,0.947265625
1718353644.461,305,309,306,309,306,306,307,309,309,309,309,309,309,309,309,309,310,309,310,307,309,309,309,311,309,309,310,311,311,311,309,306,309,306,307,-7.0,5.0,29.0,-7.934569835662842,1.15966796875,10.070799827575684,0.134033203125,0.1552734375,0.9501953125
1718353644.471,306,306,310,308,309,309,309,309,309,311,309,309,306,306,309,309,310,309,307,311,309,311,311,310,309,311,311,311,311,311,307,306,308,306,306,-7.0,5.0,29.0,-8.1787109375,2.38037109375,9.09423828125,0.1243896484375,0.151123046875,0.953857421875
1718353644.481,306,309,306,309,309,310,309,306,309,309,307,309,307,307,309,309,307,309,309,310,310,310,311,309,310,311,311,310,311,309,306,306,305,306,306,-7.0,5.0,29.0,-9.033203125,3.479003667831421,7.446288585662842,0.1199951171875,0.14208984375,0.953125
1718353644.491,306,309,309,307,305,309,309,309,309,310,311,309,309,309,309,309,309,309,309,309,309,309,311,310,310,309,311,311,311,311,309,309,306,306,309,-7.0,5.0,29.0,-9.58251953125,3.845214605331421,5.371093273162842,0.123046875,0.1314697265625,0.94775390625
1718353644.501,306,309,309,306,309,309,309,309,311,309,307,309,309,306,306,309,310,309,310,307,309,309,309,309,309,311,310,311,312,310,305,306,306,306,307,-7.0,5.0,29.0,-9.21630859375,3.784179449081421,3.417968511581421,0.1298828125,0.1248779296875,0.9422607421875
1718353644.511,307,307,306,306,306,310,310,307,310,309,308,309,306,309,307,309,309,309,309,309,306,309,309,310,309,310,311,309,311,311,306,305,306,306,307,-7.0,5.0,29.0,-7.934569835662842,3.784179449081421,2.01416015625,0.13623046875,0.122802734375,0.9400634765625
1718353644.522,309,307,306,306,308,307,309,309,309,309,308,309,309,309,306,309,309,309,309,309,309,307,309,309,309,309,311,310,311,311,305,308,309,306,307,-7.0,5.0,29.0,-5.920409679412842,3.845214605331421,1.15966796875,0.1376953125,0.124755859375,0.9420166015625
1718353644.531,308,305,307,306,309,309,309,306,310,309,306,309,309,306,309,310,310,309,309,310,309,309,309,309,309,311,310,310,311,309,305,309,309,307,305,-7.0,5.0,29.0,-3.601073980331421,3.540038824081421,0.7324218153953552,0.1326904296875,0.1287841796875,0.94677734375
1718353644.541,309,309,309,306,306,309,309,306,307,309,309,309,306,310,309,309,310,307,311,310,310,306,310,309,309,309,311,310,310,311,306,305,306,306,306,-7.0,4.0,32.0,-1.5869139432907104,2.807616949081421,0.1831054538488388,0.127685546875,0.1322021484375,0.9527587890625
1718353644.551,305,306,309,307,307,309,309,309,309,311,309,309,306,309,309,310,309,309,310,309,309,307,310,310,309,311,309,309,311,310,307,306,309,306,306,-7.0,4.0,32.0,-0.1220703050494194,2.13623046875,-0.7324218153953552,0.12890625,0.135498046875,0.95849609375
1718353644.561,307,306,308,306,309,309,306,309,309,309,309,307,306,309,309,310,309,311,306,309,309,309,309,311,309,311,311,309,311,311,306,309,306,305,309,-7.0,4.0,32.0,0.9765624403953552,1.7089842557907104,-1.8310545682907104,0.1341552734375,0.140869140625,0.963134765625
1718353644.571,306,311,308,306,309,309,309,309,309,309,307,309,306,307,309,309,311,309,309,310,309,309,311,309,309,311,311,309,309,310,306,305,305,309,309,-7.0,4.0,32.0,2.0751953125,1.2817381620407104,-2.685546636581421,0.13916015625,0.147216796875,0.968017578125
1718353644.581,309,309,309,307,309,309,309,309,309,309,309,309,308,309,307,310,309,310,309,309,307,309,309,309,309,311,311,311,310,309,306,306,306,309,306,-7.0,4.0,32.0,3.173827886581421,0.6103515625,-3.173827886581421,0.142822265625,0.1522216796875,0.9732666015625
1718353644.591,306,309,308,306,307,309,309,309,309,309,309,310,309,309,309,309,310,307,311,309,306,310,309,310,310,311,309,311,310,309,307,306,308,306,309,-7.0,4.0,32.0,3.906249761581421,0.3662109076976776,-3.234863042831421,0.1451416015625,0.1571044921875,0.9761962890625
1718353644.601,307,309,306,309,309,309,309,306,308,309,309,306,309,309,309,310,311,310,309,309,309,309,309,309,310,309,310,306,310,311,309,306,306,307,309,-7.0,4.0,32.0,3.906249761581421,0.9155272841453552,-2.807616949081421,0.1419677734375,0.162109375,0.97705078125
1718353644.611,306,306,307,309,306,299,307,309,309,309,309,307,306,306,309,310,309,306,311,309,306,306,309,306,309,311,311,309,311,311,309,306,306,305,306,-7.0,4.0,32.0,3.417968511581421,1.6479490995407104,-2.0751953125,0.1343994140625,0.1639404296875,0.9788818359375
1718353644.621,306,309,305,306,306,309,309,307,309,309,309,309,309,306,309,309,309,309,309,309,310,309,309,310,309,310,309,311,310,311,305,308,306,306,309,-7.0,4.0,32.0,2.746581792831421,2.13623046875,-1.220703125,0.1273193359375,0.16357421875,0.980224609375
1718353644.631,306,309,308,306,307,305,309,308,306,309,309,309,306,298,307,309,309,309,309,309,309,309,309,309,310,309,309,311,309,311,299,306,306,306,306,-7.0,4.0,32.0,1.9531248807907104,2.624511480331421,-0.7324218153953552,0.1212158203125,0.16357421875,0.980224609375
1718353644.641,306,306,309,309,307,309,311,310,309,309,309,309,309,311,306,311,310,309,309,306,309,311,309,309,309,310,311,311,311,310,309,306,306,305,306,-8.0,5.0,33.0,0.8544921278953552,2.990722417831421,-0.7934569716453552,0.1175537109375,0.1636962890625,0.977783203125
1718353644.651,307,309,306,307,306,299,308,309,307,310,308,309,309,307,309,309,311,309,310,309,309,310,309,309,309,310,309,310,311,309,305,306,306,307,306,-8.0,5.0,33.0,-0.1220703050494194,2.990722417831421,-1.220703125,0.1199951171875,0.1630859375,0.9732666015625
1718353644.661,309,309,306,309,309,310,309,309,309,309,309,307,306,309,309,311,309,309,309,310,309,309,309,310,309,311,310,310,311,311,306,306,306,306,306,-8.0,5.0,33.0,-0.7934569716453552,2.868652105331421,-1.5258787870407104,0.1258544921875,0.1622314453125,0.969970703125
1718353644.671,306,306,309,309,309,306,307,306,309,309,309,309,309,306,309,309,309,309,309,306,309,310,306,310,306,311,311,311,311,309,306,306,306,305,308,-8.0,5.0,33.0,-0.9155272841453552,2.868652105331421,-1.5258787870407104,0.130615234375,0.1629638671875,0.968017578125
1718353644.682,306,306,306,309,306,309,306,306,309,309,309,306,309,309,309,309,307,309,309,309,309,309,309,309,309,310,313,309,310,311,309,311,306,306,307,-8.0,5.0,33.0,-0.7324218153953552,2.929687261581421,-1.4038084745407104,0.132568359375,0.1661376953125,0.966552734375
1718353644.691,308,310,306,309,307,309,309,306,309,309,309,307,306,309,306,310,309,309,310,309,309,309,307,309,309,311,310,310,310,310,306,306,306,306,305,-8.0,5.0,33.0,-0.4272460639476776,2.685546636581421,-1.220703125,0.1322021484375,0.1697998046875,0.966552734375
1718353644.701,305,309,307,309,306,306,306,309,309,309,309,309,306,309,306,300,310,309,309,309,309,309,306,309,306,311,309,309,311,311,306,306,305,307,307,-8.0,5.0,33.0,0.0,1.8310545682907104,-0.8544921278953552,0.1309814453125,0.1702880859375,0.9671630859375
1718353644.711,306,309,306,306,308,309,307,307,309,309,310,306,306,308,309,310,309,307,307,309,309,309,309,309,309,310,311,310,311,310,306,307,306,306,305,-8.0,5.0,33.0,0.6103515625,0.7324218153953552,-0.4272460639476776,0.13037109375,0.1680908203125,0.9656982421875
1718353644.721,306,309,306,306,307,309,309,306,308,309,311,309,307,306,306,306,309,309,309,309,309,309,307,309,306,309,311,309,310,310,306,306,306,306,306,-8.0,5.0,33.0,1.0986328125,0.1831054538488388,-0.1220703050494194,0.1298828125,0.1654052734375,0.9630126953125
1718353644.732,307,309,305,306,306,309,309,309,309,307,309,309,307,309,309,309,307,309,309,309,307,309,308,309,309,311,309,310,311,309,306,306,306,306,309,-8.0,5.0,33.0,1.5869139432907104,0.3662109076976776,0.0610351525247097,0.13037109375,0.1627197265625,0.963623046875
1718353644.741,306,309,309,309,306,309,309,309,306,309,309,309,309,309,306,309,311,311,309,310,307,309,309,309,309,310,311,310,309,311,307,307,309,306,307,-9.0,7.0,28.0,2.0751953125,0.8544921278953552,0.2441406100988388,0.1314697265625,0.1611328125,0.968017578125
1718353644.751,306,309,309,309,309,309,309,307,309,310,309,306,306,306,309,310,309,308,307,310,309,306,309,309,309,310,310,309,311,311,306,305,306,306,306,-9.0,7.0,28.0,2.13623046875,1.220703125,0.4882812201976776,0.12890625,0.1602783203125,0.9727783203125
1718353644.761,305,308,309,306,309,309,308,309,309,309,310,309,309,309,309,309,306,309,310,309,309,310,307,309,309,309,311,311,311,309,306,307,306,309,306,-9.0,7.0,28.0,1.6479490995407104,1.3427733182907104,0.6103515625,0.1246337890625,0.157470703125,0.9747314453125
1718353644.771,307,307,306,309,309,310,309,306,309,309,309,309,306,309,306,309,310,309,309,309,310,306,309,309,309,310,309,311,311,311,306,306,306,306,306,-9.0,7.0,28.0,0.8544921278953552,1.220703125,0.30517578125,0.1246337890625,0.154296875,0.973876953125
1718353644.781,306,309,308,309,309,309,309,306,309,309,309,306,307,309,310,309,309,309,309,309,309,311,311,310,302,311,309,309,310,311,306,305,306,306,306,-9.0,7.0,28.0,0.30517578125,0.7934569716453552,-0.30517578125,0.1273193359375,0.15478515625,0.971435546875
1718353644.791,306,309,306,306,309,309,309,309,310,309,308,307,309,307,309,310,309,309,309,309,309,309,309,309,306,311,310,309,310,309,306,305,309,307,306,-9.0,7.0,28.0,0.2441406100988388,0.1220703050494194,-0.9155272841453552,0.1279296875,0.1602783203125,0.9700927734375
1718353644.801,307,309,306,306,306,309,306,308,309,310,309,309,309,309,309,310,306,309,306,309,309,310,309,309,310,310,311,309,311,310,306,306,307,306,306,-9.0,7.0,28.0,0.0,-0.1831054538488388,-1.2817381620407104,0.127197265625,0.1673583984375,0.9708251953125
1718353644.811,306,306,309,306,307,306,309,309,309,310,306,306,306,309,306,309,309,309,309,308,309,309,306,309,309,309,310,309,310,311,306,309,306,306,309,-9.0,7.0,28.0,-0.9155272841453552,0.1831054538488388,-1.2817381620407104,0.126220703125,0.1702880859375,0.9688720703125
1718353644.821,306,306,306,307,307,309,309,309,310,311,309,309,309,306,310,308,310,311,309,309,309,309,309,309,296,310,309,310,311,311,308,306,309,309,307,-9.0,7.0,28.0,-2.3193359375,0.9765624403953552,-0.9765624403953552,0.1246337890625,0.1668701171875,0.9617919921875
1718353644.831,309,309,307,306,309,309,309,309,309,309,309,309,307,306,309,309,310,309,310,309,309,309,307,309,309,311,310,311,309,299,308,309,309,300,306,-9.0,7.0,28.0,-3.295898199081421,1.6479490995407104,-0.7324218153953552,0.1243896484375,0.1612548828125,0.953369140625
1718353644.841,307,309,306,307,309,309,307,309,310,309,309,307,306,309,311,310,309,307,311,309,309,310,310,309,309,309,309,310,310,311,306,307,306,306,306,-9.0,9.0,32.0,-3.051757574081421,2.0751953125,-0.6103515625,0.129638671875,0.1568603515625,0.9473876953125
1718353644.851,306,310,309,309,306,309,309,309,306,309,309,309,306,310,309,310,300,309,311,309,309,309,309,309,309,311,309,311,310,311,309,306,306,306,306,-9.0,9.0,32.0,-1.7700194120407104,2.25830078125,-0.3662109076976776,0.13818359375,0.153564453125,0.950927734375
1718353644.861,307,309,306,309,309,310,306,306,310,310,309,310,308,305,309,309,309,309,309,309,310,310,309,310,309,311,311,310,311,311,308,308,306,306,309,-9.0,9.0,32.0,-0.54931640625,2.563476324081421,0.0610351525247097,0.142333984375,0.1502685546875,0.9639892578125
1718353644.871,309,309,306,309,307,310,309,309,309,309,308,309,306,309,307,309,309,307,309,309,311,307,309,309,309,311,309,311,310,310,309,309,309,306,306,-9.0,9.0,32.0,-0.6103515625,3.234863042831421,0.4272460639476776,0.1429443359375,0.1444091796875,0.9766845703125
1718353644.881,306,306,309,307,309,309,310,309,306,309,307,310,309,309,309,309,309,310,310,308,309,309,310,309,309,311,311,310,311,309,306,306,306,306,309,-9.0,9.0,32.0,-2.01416015625,4.69970703125,0.4272460639476776,0.1435546875,0.13623046875,0.9840087890625
1718353644.891,306,309,309,306,307,309,309,309,308,309,309,309,309,306,309,309,309,309,309,309,309,309,309,309,309,311,310,312,310,310,305,307,306,306,307,-9.0,9.0,32.0,-3.845214605331421,6.408690929412842,-0.0610351525247097,0.1422119140625,0.129150390625,0.987548828125
1718353644.901,309,309,306,309,309,309,309,306,306,310,309,309,307,310,309,309,310,307,310,309,309,309,309,306,309,311,311,311,312,311,306,305,306,307,306,-9.0,9.0,32.0,-5.371093273162842,7.751464366912842,-0.7934569716453552,0.13623046875,0.125244140625,0.9871826171875
1718353644.911,306,309,306,309,309,309,306,309,309,310,309,309,309,306,306,308,309,309,309,309,309,309,309,309,307,309,312,309,309,310,309,307,307,305,305,-9.0,9.0,32.0,-6.469726085662842,8.48388671875,-1.7700194120407104,0.1248779296875,0.126220703125,0.981201171875
1718353644.921,307,309,306,306,309,307,309,308,309,309,306,309,307,309,309,309,309,306,309,309,309,309,310,309,309,310,311,311,311,311,308,307,306,300,309,-9.0,9.0,32.0,-7.019042491912842,8.30078125,-2.990722417831421,0.11474609375,0.13232421875,0.9716796875
1718353644.931,306,309,306,306,306,309,309,309,308,309,309,309,306,309,309,309,309,306,310,309,306,309,306,310,309,311,311,311,311,309,306,306,309,309,307,-8.0,7.0,34.0,-6.713866710662842,6.774901866912842,-4.0283203125,0.110107421875,0.1400146484375,0.9622802734375
1718353644.941,306,307,306,309,309,309,307,309,309,309,309,306,309,309,307,309,310,307,311,309,309,309,306,309,309,310,311,311,311,310,305,307,306,305,306,-8.0,7.0,34.0,-5.981444835662842,5.0048828125,-4.45556640625,0.1063232421875,0.14794921875,0.9566650390625
1718353644.951,309,309,309,309,309,309,309,310,309,309,309,306,309,309,309,309,306,309,310,311,309,309,309,309,311,311,309,311,310,300,306,306,309,306,308,-8.0,7.0,34.0,-5.676269054412842,4.638671875,-4.08935546875,0.09912109375,0.1556396484375,0.9556884765625
1718353644.961,306,309,306,307,309,307,309,306,309,310,309,306,306,306,309,309,309,306,309,311,309,309,309,309,309,311,311,309,312,311,309,306,306,296,309,-8.0,7.0,34.0,-6.347655773162842,6.103515148162842,-3.295898199081421,0.0909423828125,0.1627197265625,0.9571533203125
1718353644.971,306,309,309,309,309,311,309,310,309,309,309,309,309,307,309,309,310,309,309,309,311,309,309,309,309,310,311,311,311,313,309,306,309,305,306,-8.0,7.0,34.0,-7.202147960662842,7.507323741912842,-2.563476324081421,0.095703125,0.1756591796875,0.9588623046875
1718353644.981,308,309,309,309,305,309,309,306,309,309,309,309,309,309,309,311,309,306,309,311,309,309,309,308,310,309,311,311,309,310,306,307,302,306,306,-8.0,7.0,34.0,-7.263183116912842,7.324218273162842,-2.01416015625,0.095703125,0.1756591796875,0.9588623046875
1718353644.991,306,309,307,309,309,310,310,300,307,309,309,309,309,309,309,309,309,310,311,307,306,311,309,310,309,311,311,310,310,310,306,306,309,309,309,-8.0,7.0,34.0,-6.103515148162842,5.676269054412842,-1.4648436307907104,0.103515625,0.1798095703125,0.9613037109375
1718353645.001,305,309,306,306,309,306,309,306,309,309,310,309,309,307,306,309,309,309,309,309,309,309,309,309,309,310,310,311,309,309,307,306,306,306,306,-8.0,7.0,34.0,-4.33349609375,4.0283203125,-0.4882812201976776,0.1090087890625,0.1817626953125,0.967041015625
1718353645.011,306,309,306,306,306,310,310,307,309,307,311,306,306,309,306,309,309,309,309,309,309,311,311,309,309,312,311,311,311,311,306,306,306,305,309,-8.0,7.0,34.0,-2.929687261581421,3.295898199081421,0.8544921278953552,0.110595703125,0.1800537109375,0.976318359375
1718353645.021,306,309,306,309,306,309,309,306,309,306,309,307,309,309,306,309,310,309,309,309,309,306,307,309,309,310,310,309,309,311,309,309,309,309,306,-8.0,7.0,34.0,-2.38037109375,3.479003667831421,2.0751953125,0.1146240234375,0.1629638671875,1.0003662109375
1718353645.031,305,305,309,306,309,309,309,309,308,309,307,309,309,308,306,309,309,309,309,307,309,310,300,309,309,311,311,309,311,311,306,309,306,306,309,-8.0,7.0,34.0,-2.50244140625,3.723144292831421,2.929687261581421,0.1146240234375,0.1629638671875,1.0003662109375
1718353645.041,306,308,309,306,307,309,309,307,310,309,309,309,309,306,309,299,310,309,309,309,309,311,309,309,309,312,310,309,310,311,306,306,309,309,306,-7.0,6.0,32.0,-2.50244140625,3.112792730331421,3.417968511581421,0.1212158203125,0.1512451171875,1.009033203125
1718353645.051,308,309,309,308,309,309,309,309,308,309,309,309,309,309,307,311,309,309,309,309,309,309,309,309,309,311,311,309,311,311,306,306,306,307,306,-7.0,6.0,32.0,-1.9531248807907104,1.15966796875,3.845214605331421,0.127197265625,0.1302490234375,1.01025390625
1718353645.061,306,306,306,306,306,311,309,309,309,309,309,307,309,306,306,309,310,309,309,310,309,306,309,308,309,311,309,310,311,311,305,306,305,306,306,-7.0,6.0,32.0,1.0986328125,-6.469726085662842,4.57763671875,0.127197265625,0.1302490234375,1.01025390625
1718353645.071,306,309,306,306,306,309,309,309,307,306,309,309,309,309,309,309,309,311,311,311,310,309,307,306,309,311,310,309,310,311,307,307,308,306,307,-7.0,6.0,32.0,1.0986328125,-6.469726085662842,4.57763671875,0.1162109375,0.128173828125,1.003662109375
1718353645.081,306,309,305,307,309,311,307,309,310,306,306,309,311,306,309,310,309,309,309,309,309,310,309,309,306,311,310,310,311,311,306,308,306,306,309,-7.0,6.0,32.0,2.01416015625,-9.09423828125,4.57763671875,0.08935546875,0.1502685546875,0.9805908203125
1718353645.091,306,309,309,306,309,309,307,309,310,309,309,309,309,309,306,309,309,310,309,308,309,310,307,309,309,310,311,311,311,310,309,307,307,305,306,-7.0,6.0,32.0,-1.6479490995407104,-6.469726085662842,2.807616949081421,0.08935546875,0.1502685546875,0.9805908203125
1718353645.101,306,309,307,306,309,310,309,309,309,309,309,309,309,306,309,310,309,306,306,309,310,309,311,310,309,313,310,309,311,309,306,309,309,306,309,-7.0,6.0,32.0,-1.6479490995407104,-6.469726085662842,2.807616949081421,0.093994140625,0.1590576171875,0.9649658203125
1718353645.111,306,309,306,309,309,309,309,309,306,309,309,309,306,307,310,309,309,309,310,309,309,306,309,309,310,311,309,309,311,311,306,307,305,305,306,-7.0,6.0,32.0,-3.906249761581421,-3.234863042831421,1.6479490995407104,0.11572265625,0.1573486328125,0.9384765625
1718353645.121,306,307,309,309,305,310,311,309,310,309,309,309,309,308,307,309,309,306,310,310,310,309,309,307,309,311,310,311,310,309,306,306,306,308,306,-7.0,6.0,32.0,0.4882812201976776,0.6713866591453552,1.4648436307907104,0.11572265625,0.1573486328125,0.9384765625
1718353645.131,296,309,306,306,309,306,309,309,310,309,309,307,309,307,309,306,309,310,309,309,310,298,309,307,309,309,311,311,311,300,298,298,296,305,305,-7.0,6.0,32.0,5.554198741912842,2.990722417831421,2.624511480331421,0.123046875,0.1573486328125,0.9404296875
1718353645.141,297,309,306,309,307,309,309,309,311,306,307,309,307,309,309,309,300,309,306,311,310,309,309,309,310,311,311,309,310,310,306,306,306,307,306,-7.0,7.0,33.0,5.554198741912842,2.990722417831421,2.624511480331421,0.113525390625,0.162353515625,0.9730224609375
1718353645.151,300,306,309,309,307,311,309,309,311,309,309,306,309,306,309,309,309,307,309,310,309,306,309,310,310,310,312,311,311,311,306,308,306,305,306,-7.0,7.0,33.0,6.530761241912842,14.892577171325684,5.126952648162842,0.113525390625,0.162353515625,0.9730224609375
1718353645.161,306,309,309,309,309,309,311,306,309,310,309,307,309,309,309,310,309,309,308,307,310,310,309,309,309,310,309,311,311,309,306,306,306,306,306,-7.0,7.0,33.0,6.530761241912842,14.892577171325684,5.126952648162842,0.10400390625,0.15673828125,0.983642578125
1718353645.171,309,309,306,309,306,310,309,309,310,309,307,307,307,310,306,309,309,309,311,300,307,309,309,306,307,311,309,311,309,311,306,308,309,306,306,-7.0,7.0,33.0,4.638671875,17.15087890625,4.82177734375,0.119873046875,0.1773681640625,1.0030517578125
1718353645.181,309,307,307,309,309,309,309,309,309,309,309,309,309,305,307,309,311,310,310,309,310,309,311,309,309,311,310,312,310,310,306,306,306,306,305,-7.0,7.0,33.0,4.7607421875,9.46044921875,3.784179449081421,0.119873046875,0.1773681640625,1.0030517578125
1718353645.191,307,307,309,306,310,311,309,309,309,311,309,309,309,309,309,309,309,309,309,309,310,311,310,311,311,311,310,311,311,309,307,306,309,305,306,-7.0,7.0,33.0,4.7607421875,9.46044921875,3.784179449081421,0.1409912109375,0.205810546875,1.0220947265625
1718353645.201,306,309,308,309,306,309,309,306,309,309,306,310,309,310,309,309,309,309,310,309,309,309,309,309,300,312,311,311,310,309,306,309,306,306,309,-7.0,7.0,33.0,3.784179449081421,5.0048828125,6.103515148162842,0.16455078125,0.241943359375,1.0350341796875
1718353645.211,306,309,309,308,307,309,309,311,309,309,309,310,309,306,307,309,309,310,309,309,309,309,309,309,309,309,311,311,310,311,306,309,306,306,309,-7.0,7.0,33.0,-5.859374523162842,-0.3662109076976776,15.441893577575684,0.16455078125,0.241943359375,1.0350341796875
1718353645.221,306,309,306,309,307,309,309,309,309,309,309,306,309,306,309,310,310,309,311,311,310,309,309,310,307,312,311,311,311,309,306,306,308,306,305,-7.0,7.0,33.0,-5.859374523162842,-0.3662109076976776,15.441893577575684,0.151123046875,0.2410888671875,1.0211181640625
1718353645.231,305,309,305,310,309,310,309,309,309,310,309,309,307,307,309,310,309,309,309,309,309,307,310,309,309,302,311,310,309,310,306,305,305,306,306,-5.0,5.0,34.0,-11.962889671325684,-3.540038824081421,19.4091796875,0.0875244140625,0.2105712890625,0.991455078125
1718353645.241,306,307,308,306,309,310,309,309,309,300,307,309,310,306,309,309,309,309,309,307,311,309,309,309,309,311,309,310,311,310,306,306,306,305,309,-5.0,5.0,34.0,-23.315427780151367,-6.408690929412842,18.9208984375,0.0875244140625,0.2105712890625,0.991455078125
1718353645.251,307,309,306,310,309,309,309,309,309,309,309,309,309,309,309,309,307,309,309,309,310,309,309,309,311,311,311,309,309,310,306,306,309,306,306,-5.0,5.0,34.0,-23.315427780151367,-6.408690929412842,18.9208984375,0.05419921875,0.1900634765625,0.989013671875
1718353645.261,306,309,306,309,309,309,309,309,306,309,309,309,309,309,309,310,309,309,310,309,309,309,311,309,309,310,311,310,310,311,306,306,306,306,306,-5.0,5.0,34.0,-31.372068405151367,-1.0986328125,14.404295921325684,0.0528564453125,0.1522216796875,0.9598388671875
1718353645.271,305,309,309,309,307,306,305,309,310,310,309,308,309,307,309,310,309,309,309,306,309,310,309,306,308,311,311,311,311,309,309,309,306,305,306,-5.0,5.0,34.0,-46.203609466552734,12.451170921325684,5.859374523162842,0.0528564453125,0.1522216796875,0.9598388671875
1718353645.281,307,309,309,309,309,310,309,307,309,309,309,307,308,309,309,310,309,309,309,310,309,310,311,309,311,311,311,311,311,311,306,307,306,306,306,-5.0,5.0,34.0,-46.203609466552734,12.451170921325684,5.859374523162842,0.0892333984375,0.1339111328125,0.92822265625
1718353645.291,306,309,306,309,309,309,310,306,308,309,309,309,309,306,309,309,309,310,310,310,311,309,306,309,309,311,310,310,307,311,306,306,306,306,308,-5.0,5.0,34.0,-45.715328216552734,15.136717796325684,6.347655773162842,0.1295166015625,0.105224609375,0.9395751953125
1718353645.301,306,306,309,309,306,309,309,309,310,311,309,309,309,309,310,309,309,311,310,309,311,309,310,309,309,311,311,311,312,311,309,309,309,309,306,-5.0,5.0,34.0,-33.5693359375,21.484373092651367,17.333984375,0.1295166015625,0.105224609375,0.9395751953125
1718353645.311,309,306,306,307,309,310,309,309,309,309,309,309,309,305,306,309,309,309,307,306,309,309,310,309,309,311,313,311,310,311,306,308,309,306,306,-5.0,5.0,34.0,-33.5693359375,21.484373092651367,17.333984375,0.1002197265625,0.1044921875,0.978271484375
1718353645.321,309,309,305,307,309,309,309,309,306,311,309,309,306,306,309,310,311,309,310,311,310,309,306,309,309,309,311,311,309,311,306,306,305,305,305,-5.0,5.0,34.0,-31.249998092651367,29.052732467651367,21.057126998901367,0.0645751953125,0.1077880859375,0.9794921875
1718353645.331,306,309,309,309,306,308,308,309,309,309,309,307,309,309,306,309,309,310,309,309,309,309,309,309,309,309,309,311,310,309,306,306,309,307,307,-5.0,5.0,34.0,-33.69140625,29.235837936401367,18.5546875,0.0645751953125,0.1077880859375,0.9794921875
1718353645.341,305,309,298,309,309,309,309,309,309,298,297,300,309,309,309,309,309,309,309,309,309,309,306,309,309,310,311,309,311,311,309,306,306,306,306,-5.0,9.0,27.0,-33.02001953125,23.803709030151367,17.08984375,0.0633544921875,0.0855712890625,0.9970703125
1718353645.351,306,308,309,309,309,309,310,307,306,309,309,309,306,309,309,309,309,309,309,309,310,306,310,309,309,311,311,310,311,311,306,306,307,306,307,-5.0,9.0,27.0,-33.02001953125,23.803709030151367,17.08984375,0.110107421875,0.0836181640625,0.960693359375
1718353645.361,307,309,309,307,309,309,309,309,311,310,309,309,309,309,309,307,310,309,310,307,306,311,310,310,309,311,311,311,311,310,308,306,309,305,306,-5.0,9.0,27.0,-22.888181686401367,8.4228515625,20.935056686401367,0.110107421875,0.0836181640625,0.960693359375
1718353645.371,306,306,307,307,309,309,311,309,309,309,309,309,306,306,309,309,310,309,306,309,309,309,311,309,309,311,313,311,312,311,306,306,309,305,308,-5.0,9.0,27.0,-22.888181686401367,8.4228515625,20.935056686401367,0.1556396484375,0.0792236328125,0.9571533203125
1718353645.381,306,307,309,309,309,309,309,309,309,309,309,309,309,308,300,309,309,309,309,309,309,310,311,306,309,310,311,310,310,310,306,309,306,309,306,-5.0,9.0,27.0,-16.9677734375,8.6669921875,28.503416061401367,0.1533203125,0.064697265625,0.999267578125
1718353645.391,309,306,306,309,305,309,309,309,309,309,309,309,309,309,310,309,309,309,310,309,309,309,309,309,310,309,310,311,309,311,309,309,306,309,306,-5.0,9.0,27.0,-23.559568405151367,26.306150436401367,49.621578216552734,0.1533203125,0.064697265625,0.999267578125
1718353645.401,309,309,307,307,309,309,309,306,309,310,309,309,309,306,306,309,309,308,311,307,310,309,309,309,309,310,311,311,311,310,307,309,306,309,306,-5.0,9.0,27.0,-23.559568405151367,26.306150436401367,49.621578216552734,-0.0435791015625,0.0625,0.9580078125
1718353645.411,306,309,309,307,309,309,309,308,309,309,309,309,306,307,309,311,309,307,309,310,309,309,311,311,310,311,311,310,311,311,309,305,307,306,306,-5.0,9.0,27.0,-22.949216842651367,26.000974655151367,51.818843841552734,-0.091796875,0.033203125,1.0328369140625
1718353645.421,306,307,309,309,305,306,309,309,310,307,309,309,306,309,306,306,309,309,310,309,307,310,309,309,306,309,310,311,311,309,306,307,306,309,305,-5.0,9.0,27.0,-22.460935592651367,4.94384765625,21.911619186401367,-0.091796875,0.033203125,1.0328369140625
1718353645.431,306,306,306,306,307,309,310,309,309,309,309,309,309,307,309,309,309,307,309,306,309,311,309,318,306,311,297,311,311,311,306,306,305,306,307,-5.0,8.0,29.0,-22.460935592651367,4.94384765625,21.911619186401367,0.0726318359375,-0.061767578125,1.06982421875
1718353645.441,309,307,309,306,299,298,309,298,296,309,306,300,309,309,309,309,310,310,309,309,307,309,309,310,309,309,300,310,310,298,298,299,309,309,307,-5.0,8.0,29.0,-46.386714935302734,13.793944358825684,16.7236328125,0.07177734375,-0.0616455078125,1.0054931640625
1718353645.451,309,307,309,306,307,309,310,309,309,306,306,309,307,309,309,310,309,309,310,309,311,309,309,309,310,310,310,309,310,311,306,306,306,309,306,-5.0,8.0,29.0,-49.560543060302734,17.578125,19.59228515625,0.07177734375,-0.0616455078125,1.0054931640625
1718353645.461,307,309,306,306,309,309,309,307,309,309,309,306,309,309,309,309,309,309,309,300,300,309,309,309,309,309,310,311,307,311,306,307,306,306,306,-5.0,8.0,29.0,-49.560543060302734,17.578125,19.59228515625,0.0693359375,-0.01611328125,0.9271240234375
1718353645.471,306,309,309,309,309,309,309,309,309,309,309,305,309,306,309,309,309,309,309,309,307,310,309,309,310,310,310,311,310,311,306,309,306,307,309,-5.0,8.0,29.0,-37.90283203125,16.11328125,21.240232467651367,0.12646484375,0.0478515625,0.8699951171875
1718353645.481,306,306,307,306,309,309,309,307,309,309,309,309,309,309,308,309,309,310,309,306,307,309,309,306,306,311,311,311,310,311,306,306,306,309,306,-5.0,8.0,29.0,-27.587888717651367,15.747069358825684,25.268552780151367,0.12646484375,0.0478515625,0.8699951171875
1718353645.492,306,306,309,309,309,310,307,309,308,308,309,309,309,309,306,309,309,309,309,310,310,309,309,309,309,311,311,311,311,310,306,306,306,309,306,-5.0,8.0,29.0,-27.587888717651367,15.747069358825684,25.268552780151367,0.055419921875,0.0487060546875,0.968017578125
1718353645.501,306,306,309,309,309,309,306,309,309,309,309,300,308,307,306,309,310,309,309,309,309,309,309,309,306,311,311,311,310,309,305,306,306,306,306,-5.0,8.0,29.0,-27.282712936401367,24.291990280151367,31.616209030151367,0.074462890625,0.0234375,0.965087890625
1718353645.511,308,307,309,309,306,309,306,309,309,309,309,306,309,306,306,310,309,310,309,309,309,309,310,310,309,311,310,311,302,312,306,306,306,306,306,-5.0,8.0,29.0,-29.052732467651367,33.69140625,33.447265625,0.074462890625,0.0234375,0.965087890625
1718353645.521,306,308,306,309,306,309,306,308,309,309,309,306,309,309,309,309,309,306,309,309,309,309,310,310,310,311,311,309,310,310,307,306,306,306,309,-5.0,8.0,29.0,-29.052732467651367,33.69140625,33.447265625,-0.0511474609375,-0.0821533203125,0.9776611328125
1718353645.531,306,309,306,309,307,309,309,306,309,309,309,306,307,309,309,309,309,309,310,309,309,310,310,310,309,309,309,309,309,311,306,306,306,306,307,-3.0,10.0,31.0,-24.230955123901367,40.954586029052734,27.160642623901367,-0.0430908203125,-0.07763671875,1.02490234375
1718353645.541,306,300,306,309,305,309,309,306,311,309,309,307,306,306,309,309,309,309,309,310,309,309,307,309,307,311,309,309,311,311,305,306,306,307,306,-3.0,10.0,31.0,-26.855466842651367,40.527339935302734,22.399900436401367,-0.0430908203125,-0.07763671875,1.02490234375
1718353645.551,307,309,309,308,310,309,306,309,306,309,308,309,309,306,309,309,311,309,309,306,311,309,310,309,310,310,309,309,310,309,309,306,308,306,306,-3.0,10.0,31.0,-26.855466842651367,40.527339935302734,22.399900436401367,-0.064208984375,-0.0626220703125,1.112060546875
1718353645.561,306,309,306,306,309,309,306,308,309,309,307,309,306,309,309,310,310,309,309,310,309,306,309,309,309,312,309,309,310,311,307,306,306,305,306,-3.0,10.0,31.0,-49.194332122802734,27.221677780151367,9.94873046875,-0.0650634765625,-0.06884765625,1.0753173828125
1718353645.571,306,309,306,307,309,306,309,309,309,309,309,309,309,306,306,310,309,309,307,309,309,309,309,306,309,311,311,311,309,310,306,306,306,305,306,-3.0,10.0,31.0,-56.579586029052734,18.24951171875,2.868652105331421,-0.0650634765625,-0.06884765625,1.0753173828125
1718353645.581,307,309,305,309,309,310,307,309,309,310,309,309,306,309,309,309,309,310,309,309,310,310,309,309,309,311,309,311,311,309,306,306,307,308,305,-3.0,10.0,31.0,-56.579586029052734,18.24951171875,2.868652105331421,0.0936279296875,-0.08984375,0.96533203125
1718353645.591,306,307,306,307,306,309,309,309,305,309,306,309,309,307,306,310,309,309,309,311,306,307,309,309,309,310,309,311,311,312,307,310,307,306,309,-3.0,10.0,31.0,-47.485347747802734,0.7324218153953552,8.48388671875,0.1280517578125,-0.109375,0.95166015625
1718353645.601,306,305,307,307,306,309,309,309,310,309,309,307,306,309,309,309,309,309,309,310,309,309,309,311,310,309,310,311,309,311,306,306,306,306,307,-3.0,10.0,31.0,-34.36279296875,-6.530761241912842,20.812986373901367,0.1280517578125,-0.109375,0.95166015625
1718353645.611,306,309,309,309,309,309,309,307,310,309,306,309,309,307,309,309,309,309,311,309,306,309,311,309,309,311,311,312,311,309,306,306,307,306,309,-3.0,10.0,31.0,-34.36279296875,-6.530761241912842,20.812986373901367,0.0263671875,-0.217529296875,1.03662109375
1718353645.621,308,306,306,307,309,310,309,307,307,310,309,310,306,306,307,310,310,310,310,309,310,309,310,310,311,310,309,310,310,311,306,305,306,306,309,-3.0,10.0,31.0,-15.441893577575684,-11.596678733825684,35.64453125,-0.04833984375,-0.2669677734375,1.0555419921875
1718353645.631,305,306,309,309,306,306,306,309,309,309,309,309,309,309,307,309,309,309,309,310,309,310,309,307,309,310,310,311,310,309,309,309,309,307,306,-3.0,10.0,31.0,-15.319823265075684,-5.676269054412842,31.188962936401367,-0.04833984375,-0.2669677734375,1.0555419921875
1718353645.641,306,309,306,309,309,309,310,309,309,309,309,309,309,307,309,309,310,309,310,309,310,310,310,310,309,311,311,310,309,300,306,308,305,306,306,0.0,16.0,24.0,-15.319823265075684,-5.676269054412842,31.188962936401367,-0.056884765625,-0.20361328125,1.015625
1718353645.651,296,298,306,309,310,310,309,309,310,309,309,309,310,310,307,309,311,311,309,309,309,309,309,309,309,311,311,311,311,310,305,305,306,309,306,0.0,16.0,24.0,-23.986814498901367,-2.38037109375,16.29638671875,-0.0067138671875,-0.089111328125,0.9691162109375
1718353645.661,297,306,307,306,307,306,309,309,309,309,306,309,309,309,310,307,307,309,309,309,309,310,309,309,309,309,311,311,310,311,306,306,307,308,306,0.0,16.0,24.0,-22.827146530151367,-6.164550304412842,13.122557640075684,-0.0067138671875,-0.089111328125,0.9691162109375
1718353645.671,309,309,307,306,309,306,309,309,309,309,309,307,309,309,307,309,311,307,309,311,310,311,311,311,310,310,311,311,311,300,306,307,309,308,309,0.0,16.0,24.0,-22.827146530151367,-6.164550304412842,13.122557640075684,-0.0384521484375,0.0089111328125,0.8817138671875
1718353645.681,307,309,306,309,309,309,309,309,309,310,309,309,307,311,309,310,309,309,309,311,309,309,311,309,309,310,311,309,310,311,307,307,309,306,306,0.0,16.0,24.0,-9.6435546875,-7.080077648162842,6.713866710662842,-0.0670166015625,-0.007080078125,0.874267578125
1718353645.691,306,307,309,309,306,309,306,309,309,311,311,309,309,309,310,310,310,311,311,309,309,309,309,309,306,310,313,310,311,311,307,306,306,306,305,0.0,16.0,24.0,-7.568358898162842,-4.150390625,-1.7089842557907104,-0.0670166015625,-0.007080078125,0.874267578125
1718353645.701,309,306,309,309,309,307,309,310,309,309,309,306,309,309,309,306,311,309,310,310,310,309,310,309,311,311,310,311,311,311,305,305,306,306,309,0.0,16.0,24.0,-7.568358898162842,-4.150390625,-1.7089842557907104,-0.0941162109375,-0.0914306640625,0.89404296875
1718353645.711,309,309,306,306,310,309,309,307,306,309,308,309,309,307,309,310,310,309,311,310,311,309,307,309,309,311,311,310,311,311,307,306,306,306,306,0.0,16.0,24.0,-6.103515148162842,4.5166015625,-22.827146530151367,-0.04150390625,-0.13623046875,0.891357421875
1718353645.721,306,309,309,308,306,306,309,309,309,307,307,309,306,306,310,309,310,307,309,310,310,309,309,309,309,309,311,310,310,311,306,309,306,306,306,0.0,16.0,24.0,-2.13623046875,4.7607421875,-28.381345748901367,-0.04150390625,-0.13623046875,0.891357421875
1718353645.731,306,306,307,309,309,309,309,309,309,309,309,309,309,309,309,309,309,309,309,309,309,309,309,309,309,312,311,311,311,311,306,307,306,305,306,-2.0,14.0,24.0,-2.13623046875,4.7607421875,-28.381345748901367,-0.0115966796875,-0.1239013671875,0.9903564453125
1718353645.741,309,306,308,309,309,309,309,306,305,309,309,309,308,309,308,309,309,309,311,309,309,306,309,309,309,311,311,309,311,311,306,307,306,305,308,-2.0,14.0,24.0,3.173827886581421,-10.742186546325684,-35.15625,0.009765625,-0.10107421875,1.055419921875
1718353645.751,296,311,296,298,307,309,310,306,309,310,296,308,309,298,300,300,299,310,310,310,309,311,309,309,309,311,309,311,310,308,306,306,307,306,305,-2.0,14.0,24.0,-4.7607421875,-20.080564498901367,-35.5224609375,0.0318603515625,-0.0831298828125,1.08740234375
1718353645.761,300,307,306,306,309,309,306,309,309,309,298,309,309,309,306,310,309,309,311,311,310,311,309,309,300,311,311,310,311,311,309,306,309,306,309,-2.0,14.0,24.0,-4.7607421875,-20.080564498901367,-35.5224609375,0.057861328125,-0.0928955078125,1.094482421875
1718353645.771,309,309,305,309,309,309,309,308,310,306,309,309,306,309,309,310,310,311,309,309,309,309,311,309,310,311,311,311,310,311,309,306,306,306,306,-2.0,14.0,24.0,-35.46142578125,-37.41455078125,-33.447265625,0.073486328125,-0.1297607421875,1.076171875
1718353645.781,296,309,306,309,309,309,310,309,309,311,309,309,306,310,309,310,309,309,309,309,311,309,311,307,309,311,310,311,309,309,300,309,307,309,308,-2.0,14.0,24.0,-46.569820404052734,-44.494625091552734,-32.65380859375,0.063232421875,-0.142578125,1.0252685546875
1718353645.791,309,309,309,306,309,310,308,309,306,307,309,309,309,306,309,309,310,309,309,311,309,311,311,309,309,311,311,311,309,311,306,307,306,306,308,-2.0,14.0,24.0,-47.241207122802734,-48.950191497802734,-31.127927780151367,0.05615234375,-0.118896484375,0.970947265625
1718353645.801,306,309,306,300,300,309,309,309,309,309,309,309,309,309,306,309,309,309,307,311,309,308,309,309,309,311,310,311,311,311,309,306,309,309,306,-2.0,14.0,24.0,-38.4521484375,-49.621578216552734,-25.390623092651367,0.067626953125,-0.118408203125,0.9686279296875
1718353645.811,306,306,310,308,309,306,309,308,309,309,309,309,309,310,309,310,309,309,309,309,309,311,309,309,306,310,311,311,309,311,306,306,309,306,305,-2.0,14.0,24.0,-28.503416061401367,-51.330562591552734,-18.1884765625,0.071044921875,-0.143798828125,1.0107421875
1718353645.821,306,306,306,309,309,309,309,307,309,309,309,308,306,306,309,309,310,310,309,309,309,309,309,310,309,311,311,310,309,309,306,309,307,306,306,-2.0,14.0,24.0,-21.179197311401367,-58.715816497802734,-14.282225608825684,0.057373046875,-0.1871337890625,1.03857421875
1718353645.831,309,309,309,306,309,309,309,307,309,309,309,309,309,309,309,309,310,309,309,311,309,309,311,311,307,311,310,310,309,310,306,309,306,306,308,-1.0,13.0,24.0,-14.343260765075684,-65.0634765625,-12.512206077575684,0.062255859375,-0.249267578125,1.0146484375
1718353645.841,306,307,307,306,306,309,306,310,310,306,309,310,309,310,309,309,311,309,310,306,310,309,309,310,309,309,311,311,311,311,306,306,306,307,306,-1.0,13.0,24.0,-7.263183116912842,-62.133785247802734,-10.742186546325684,0.10498046875,-0.2606201171875,0.95947265625
1718353645.851,306,309,306,306,309,309,309,307,309,309,309,307,309,309,309,309,309,307,309,309,309,309,311,309,310,309,311,313,309,309,307,309,306,306,305,-1.0,13.0,24.0,1.220703125,-57.617183685302734,-8.36181640625,0.1536865234375,-0.1986083984375,0.9364013671875
1718353645.861,306,309,306,307,309,310,309,309,309,309,309,309,306,306,309,309,311,306,309,310,309,306,309,310,310,311,310,309,311,311,306,306,306,306,306,-1.0,13.0,24.0,13.183592796325684,-64.51416015625,-4.21142578125,0.171142578125,-0.13427734375,0.95166015625
1718353645.871,309,309,309,307,306,309,310,311,310,309,309,309,309,309,309,310,309,309,309,309,309,309,309,309,310,309,311,311,311,310,307,308,307,309,305,-1.0,13.0,24.0,27.709959030151367,-84.71678924560547,0.9155272841453552,0.166259765625,-0.1033935546875,1.0185546875
1718353645.881,309,310,306,309,309,311,309,306,309,310,309,309,306,306,310,310,310,310,308,311,310,307,309,309,309,311,312,311,311,310,306,307,307,306,309,-1.0,13.0,24.0,38.818359375,-104.24803924560547,3.662109136581421,0.140869140625,-0.0958251953125,1.1060791015625
1718353645.891,308,309,306,307,309,309,309,309,306,309,309,307,309,309,309,309,309,309,309,309,306,310,309,309,309,309,310,311,311,309,305,309,306,309,307,-1.0,13.0,24.0,39.1845703125,-103.82079315185547,5.615233898162842,0.1322021484375,-0.0966796875,1.083984375
1718353645.901,307,300,309,308,306,309,309,309,310,309,309,306,310,309,306,309,309,309,309,309,309,309,309,309,309,311,310,312,310,311,306,307,306,309,306,-1.0,13.0,24.0,31.921384811401367,-96.00829315185547,10.375975608825684,0.2177734375,-0.0894775390625,1.0233154296875
1718353645.911,310,309,306,306,307,310,309,309,310,310,309,309,309,309,309,311,309,309,310,309,309,307,311,310,310,311,311,311,312,310,309,306,307,307,305,-1.0,13.0,24.0,30.273435592651367,-107.72704315185547,13.488768577575684,0.3624267578125,-0.06787109375,1.0396728515625
1718353645.921,308,309,306,306,309,310,309,310,309,309,309,309,306,306,309,311,309,309,311,310,309,309,309,309,310,311,309,311,311,310,307,305,306,306,309,-1.0,13.0,24.0,42.663570404052734,-135.3759765625,6.286620616912842,0.4681396484375,-0.038330078125,1.093994140625
1718353645.931,306,309,309,309,306,310,309,310,309,309,309,309,309,309,310,309,310,311,310,310,309,310,309,309,309,311,311,311,309,311,306,309,306,305,307,-1.0,13.0,24.0,63.110347747802734,-152.77099609375,-13.916014671325684,0.472900390625,-0.0311279296875,1.097900390625
1718353645.941,308,310,309,306,306,310,309,310,311,309,309,309,306,306,310,310,309,309,309,311,311,310,309,309,310,311,311,311,313,309,307,310,309,306,306,-1.0,8.0,23.0,77.7587890625,-142.15087890625,-41.137691497802734,0.3741455078125,-0.0621337890625,0.9888916015625
1718353645.961,306,309,309,309,306,309,309,311,309,310,309,309,309,309,309,309,309,309,309,309,309,309,309,309,309,310,311,310,311,310,306,309,306,307,306,-1.0,8.0,23.0,65.97900390625,-86.66991424560547,-71.47216796875,0.2327880859375,-0.119140625,0.809814453125
1718353645.971,309,307,309,309,309,309,309,309,306,309,309,309,306,307,309,310,310,309,309,310,309,311,309,309,311,311,310,312,310,310,309,306,306,309,306,-1.0,8.0,23.0,51.574703216552734,-71.4111328125,-68.2373046875,0.2672119140625,-0.098388671875,0.8248291015625
1718353645.981,309,311,306,309,309,309,309,309,306,311,310,306,298,309,309,309,309,311,310,309,311,309,309,309,309,310,310,310,311,310,306,309,309,307,309,-1.0,8.0,23.0,42.419429779052734,-69.27490234375,-60.913082122802734,0.3243408203125,-0.0550537109375,0.855224609375
1718353645.991,309,306,306,309,308,309,309,310,310,309,309,310,309,309,309,310,310,310,309,311,311,310,310,310,310,310,311,311,309,311,307,306,306,306,306,-1.0,8.0,23.0,42.602535247802734,-90.33202362060547,-53.649898529052734,0.377197265625,-0.0042724609375,0.8470458984375
1718353646.001,307,307,309,309,309,311,309,310,309,309,309,307,309,306,306,308,311,310,309,309,310,309,309,309,306,311,311,311,309,313,306,309,309,307,306,-1.0,8.0,23.0,53.649898529052734,-148.4375,-47.363277435302734,0.40869140625,0.03759765625,0.7991943359375
1718353646.011,302,306,309,306,309,309,310,309,309,307,306,308,309,311,309,309,310,309,309,309,308,309,307,309,309,311,311,311,310,311,306,306,309,309,306,-1.0,8.0,23.0,69.39697265625,-237.60984802246094,-40.771480560302734,0.4388427734375,0.04736328125,0.7752685546875
1718353646.021,306,309,309,308,306,306,306,309,309,310,309,309,309,309,306,309,309,309,309,309,306,310,309,309,309,310,310,311,309,311,307,309,306,305,306,-1.0,8.0,23.0,77.392578125,-325.1952819824219,-30.029294967651367,0.5059814453125,0.0218505859375,0.7999267578125
1718353646.031,307,309,306,306,309,311,311,310,309,310,309,309,306,309,309,310,309,310,309,310,300,311,309,310,311,311,311,310,312,311,306,309,306,306,309,-2.0,0.0,24.0,71.59423828125,-378.4789733886719,-13.488768577575684,0.6217041015625,-0.0216064453125,0.8466796875
1718353646.041,306,308,306,309,310,309,309,309,306,309,310,309,309,309,309,309,309,308,309,310,309,306,309,311,309,311,311,309,313,311,309,309,309,308,306,-2.0,0.0,24.0,57.678218841552734,-385.1318054199219,3.112792730331421,0.7479248046875,-0.0460205078125,0.8798828125
1718353646.051,306,309,309,309,309,307,309,310,309,309,309,309,306,310,309,307,309,309,309,309,306,309,309,311,307,310,312,311,311,309,307,306,306,305,306,-2.0,0.0,24.0,43.945308685302734,-354.6752624511719,10.437010765075684,0.8115234375,-0.036376953125,0.8763427734375
1718353646.062,306,309,309,309,309,309,309,309,309,311,306,309,309,309,309,310,310,309,311,309,310,309,310,310,309,310,310,311,311,311,306,306,306,309,309,-2.0,0.0,24.0,34.36279296875,-307.6171875,3.601073980331421,0.7711181640625,-0.0078125,0.7958984375
1718353646.071,307,309,306,309,309,310,309,308,309,309,309,306,306,309,307,310,311,309,309,309,307,309,310,309,310,310,310,309,311,311,306,306,306,305,306,-2.0,0.0,24.0,28.747556686401367,-269.4091796875,-10.681151390075684,0.6729736328125,-0.011474609375,0.614501953125
1718353646.081,306,309,309,307,309,309,309,309,309,309,309,310,309,309,309,309,310,310,309,309,309,310,309,309,309,309,310,309,311,309,306,309,309,307,306,-2.0,0.0,24.0,26.611326217651367,-274.90234375,-17.76123046875,0.5899658203125,-0.06494140625,0.4466552734375
1718353646.091,306,309,306,307,309,309,309,309,309,311,306,309,305,307,309,310,310,309,306,309,309,309,310,309,310,311,309,312,309,309,307,306,309,306,306,-2.0,0.0,24.0,25.329587936401367,-329.4677429199219,-10.192870140075684,0.544189453125,-0.1143798828125,0.4024658203125
1718353646.101,307,309,306,309,309,309,310,309,310,309,309,309,306,307,310,309,309,309,311,311,310,309,309,311,311,311,311,311,311,311,307,306,306,309,306,-2.0,0.0,24.0,17.63916015625,-390.8691101074219,8.6669921875,0.530029296875,-0.122314453125,0.447021484375
1718353646.111,301,306,309,306,305,309,310,309,310,309,309,309,309,300,300,306,310,309,310,309,309,309,309,309,309,311,311,309,311,311,309,308,309,305,309,-2.0,0.0,24.0,1.220703125,-427.3070983886719,33.75244140625,0.5465087890625,-0.0792236328125,0.55908203125
1718353646.121,309,307,306,307,306,309,310,306,309,309,309,309,309,306,310,309,309,309,309,309,309,311,309,310,311,313,311,312,312,309,306,307,309,307,309,-2.0,0.0,24.0,-15.930174827575684,-437.3778991699219,60.485836029052734,0.6068115234375,-0.02294921875,0.725830078125
1718353646.131,306,309,307,309,309,309,309,306,309,310,309,309,309,309,307,307,309,309,311,309,309,309,307,309,309,310,310,309,310,311,309,306,309,306,306,0.0,-10.0,11.0,-21.728513717651367,-423.1567077636719,83.37401580810547,0.703857421875,0.0101318359375,0.8602294921875
1718353646.141,307,307,309,309,306,310,309,309,310,309,310,309,306,307,309,309,309,309,311,309,310,309,309,309,309,311,309,311,311,311,306,306,306,306,306,0.0,-10.0,11.0,-8.48388671875,-387.6952819824219,97.04589080810547,0.8045654296875,0.03173828125,0.8675537109375
1718353646.151,306,306,306,306,300,309,309,309,309,309,306,309,310,309,309,309,309,309,311,309,309,309,311,311,309,311,311,309,311,310,306,306,307,309,306,0.0,-10.0,11.0,18.37158203125,-338.5009460449219,99.24315643310547,0.887939453125,0.027587890625,0.6983642578125
1718353646.161,306,309,306,309,309,307,309,307,306,310,309,308,306,310,311,311,310,310,309,309,309,309,309,309,310,310,311,309,311,311,306,305,309,306,306,0.0,-10.0,11.0,45.349117279052734,-287.53662109375,92.89550018310547,0.94384765625,-0.0045166015625,0.3927001953125
1718353646.171,309,309,309,309,306,311,309,309,309,311,309,309,309,309,306,306,309,310,309,309,309,309,309,307,307,311,311,311,311,309,306,306,309,306,306,0.0,-10.0,11.0,60.424800872802734,-250.18309020996094,83.55712127685547,0.972412109375,-0.0400390625,0.0633544921875
1718353646.181,306,309,306,306,306,310,309,309,307,309,309,309,306,307,309,310,310,309,306,309,309,309,310,309,309,311,311,310,311,311,309,309,309,305,306,0.0,-10.0,11.0,56.518550872802734,-236.93846130371094,74.462890625,0.9681396484375,-0.079833984375,-0.1993408203125
1718353646.191,307,306,306,306,309,309,309,306,309,309,300,309,306,309,307,309,310,309,310,309,309,309,309,309,310,312,311,310,309,311,306,309,306,308,309,0.0,-10.0,11.0,37.9638671875,-249.14549255371094,66.5283203125,0.9320068359375,-0.1279296875,-0.339599609375
1718353646.201,306,309,306,309,309,306,309,306,309,309,310,311,309,307,309,310,307,309,306,311,310,310,306,306,310,311,311,311,311,310,309,305,305,306,306,0.0,-10.0,11.0,14.099120140075684,-281.06689453125,63.232418060302734,0.894775390625,-0.171875,-0.3179931640625
1718353646.211,307,307,307,306,309,309,310,309,306,310,309,309,309,309,309,310,310,309,309,309,310,309,309,309,309,310,311,311,311,311,306,305,309,306,308,0.0,-10.0,11.0,-9.6435546875,-317.0166015625,70.37353515625,0.88623046875,-0.181640625,-0.1563720703125
1718353646.221,306,306,309,309,306,309,307,310,309,309,306,306,309,309,309,307,311,309,309,311,309,310,309,309,309,310,311,309,310,310,309,306,306,309,306,0.0,-10.0,11.0,-27.770994186401367,-335.8764343261719,86.66991424560547,0.9259033203125,-0.1385498046875,0.0611572265625
1718353646.231,309,308,306,306,306,309,309,309,309,310,309,309,309,307,307,309,310,309,311,306,309,310,309,309,306,311,310,311,310,309,308,306,306,306,307,1.0,-8.0,9.0,-32.3486328125,-333.1908874511719,102.05077362060547,1.0172119140625,-0.067138671875,0.26318359375
1718353646.241,306,306,307,309,305,306,309,309,310,309,309,309,309,307,310,307,306,310,309,310,309,309,311,310,310,311,310,310,311,311,306,305,309,309,307,1.0,-8.0,9.0,-14.465331077575684,-318.17626953125,107.17772674560547,1.1212158203125,0.0,0.3837890625
1718353646.251,309,306,306,309,306,309,309,307,309,307,310,309,306,309,309,310,310,309,309,309,309,309,309,310,309,311,309,309,310,311,306,306,309,305,309,1.0,-8.0,9.0,24.902341842651367,-290.771484375,96.74071502685547,1.18017578125,0.02001953125,0.3060302734375
1718353646.261,305,308,309,310,307,309,309,309,309,309,310,309,310,309,307,309,311,311,309,309,309,309,310,310,309,310,309,311,311,311,306,307,307,308,306,1.0,-8.0,9.0,72.81494140625,-256.103515625,72.1435546875,1.1490478515625,-0.0401611328125,-0.0103759765625
1718353646.271,309,307,309,309,307,308,309,309,309,309,309,309,309,309,309,309,309,311,311,309,309,310,311,310,309,311,310,311,311,311,306,306,309,306,307,1.0,-8.0,9.0,114.13573455810547,-237.18260192871094,43.579097747802734,1.0244140625,-0.1614990234375,-0.4156494140625
1718353646.281,306,306,306,310,307,309,309,306,310,309,306,309,306,309,309,310,309,311,309,310,309,309,309,309,309,311,310,309,310,313,309,306,305,306,306,1.0,-8.0,9.0,133.056640625,-243.95750427246094,23.437498092651367,0.863525390625,-0.306396484375,-0.7335205078125
1718353646.291,306,310,309,309,307,309,309,309,309,310,308,309,309,309,309,306,309,310,309,306,307,311,310,310,309,311,310,311,311,309,306,309,309,309,306,1.0,-8.0,9.0,119.56786346435547,-266.4794921875,22.460935592651367,0.718994140625,-0.4207763671875,-0.8948974609375
1718353646.301,309,307,309,306,309,309,310,309,309,309,309,307,306,306,309,311,309,309,309,310,309,309,309,309,309,310,312,309,311,311,309,307,309,309,306,1.0,-8.0,9.0,83.25194549560547,-297.607421875,44.799800872802734,0.6279296875,-0.449462890625,-0.8656005859375
1718353646.311,309,305,306,309,309,309,309,309,309,309,309,306,309,307,298,300,309,309,311,306,310,309,310,309,309,310,311,310,309,310,306,309,306,306,309,1.0,-8.0,9.0,40.954586029052734,-320.73974609375,82.27538299560547,0.649658203125,-0.381591796875,-0.6729736328125
1718353646.321,306,307,308,309,309,306,309,307,309,309,309,310,309,309,306,309,310,309,306,310,310,310,311,310,309,311,311,310,311,309,306,306,306,298,306,1.0,-8.0,9.0,4.69970703125,-312.98828125,117.18749237060547,0.7987060546875,-0.25048828125,-0.4364013671875
1718353646.331,306,306,306,306,309,309,309,307,310,307,309,309,309,309,309,311,309,307,309,307,309,309,309,309,310,311,310,312,311,310,309,306,309,306,306,3.0,-3.0,-4.0,-9.27734375,-277.64892578125,129.8828125,0.998779296875,-0.1290283203125,-0.2645263671875
1718353646.341,309,306,309,306,309,310,309,309,308,307,310,309,307,309,309,310,309,309,309,310,311,309,310,310,309,310,311,310,309,311,307,306,309,306,306,3.0,-3.0,-4.0,7.751464366912842,-230.10252380371094,110.10741424560547,1.1473388671875,-0.0927734375,-0.2689208984375
1718353646.351,306,309,309,308,306,309,310,309,300,309,309,309,309,309,307,310,309,309,309,310,309,306,309,309,310,309,310,311,311,309,306,309,306,306,309,3.0,-3.0,-4.0,42.724605560302734,-183.16648864746094,65.0634765625,1.1571044921875,-0.159912109375,-0.48486328125
1718353646.361,309,307,309,306,309,310,310,309,309,309,309,307,309,306,309,310,309,310,309,309,310,310,309,311,309,311,311,311,311,309,306,309,309,306,306,3.0,-3.0,-4.0,72.93701171875,-160.70555114746094,15.747069358825684,1.002685546875,-0.285888671875,-0.748291015625
1718353646.371,309,309,306,309,308,309,310,306,309,309,306,310,309,309,309,309,310,309,309,309,307,306,309,309,309,311,311,309,310,311,306,307,306,306,309,3.0,-3.0,-4.0,83.74022674560547,-172.79051208496094,-16.05224609375,0.7672119140625,-0.3958740234375,-0.8702392578125
1718353646.381,308,309,309,309,306,309,306,309,309,309,309,309,309,310,309,309,310,309,309,306,309,309,310,309,309,311,311,311,309,310,306,308,308,306,309,3.0,-3.0,-4.0,73.66943359375,-192.68797302246094,-20.01953125,0.5880126953125,-0.433837890625,-0.8272705078125
1718353646.391,309,309,309,309,309,309,309,307,310,310,309,309,300,309,307,309,309,310,310,311,309,309,309,311,306,310,309,311,311,309,306,306,306,307,306,3.0,-3.0,-4.0,52.612300872802734,-185.66893005371094,-3.662109136581421,0.552978515625,-0.39990234375,-0.7333984375
1718353646.401,306,309,307,309,306,310,309,306,310,309,307,309,309,309,306,309,310,309,310,307,309,309,306,311,306,311,311,310,309,311,306,309,309,306,309,3.0,-3.0,-4.0,34.24072265625,-143.98193359375,12.756346702575684,0.626953125,-0.3297119140625,-0.7069091796875
1718353646.412,307,306,309,307,309,310,309,309,309,309,309,309,306,309,305,309,309,311,309,310,308,309,309,310,311,311,311,311,310,310,306,306,306,309,306,3.0,-3.0,-4.0,24.291990280151367,-90.20995330810547,12.329100608825684,0.697021484375,-0.2802734375,-0.740966796875
1718353646.421,307,308,309,309,307,307,307,306,309,309,309,309,309,306,310,309,310,309,311,310,309,310,310,310,311,311,313,311,309,310,309,306,306,305,306,3.0,-3.0,-4.0,17.39501953125,-50.292964935302734,-3.601073980331421,0.69921875,-0.280517578125,-0.728515625
1718353646.431,306,309,306,309,307,310,309,309,306,311,309,309,306,310,309,311,309,309,310,311,310,309,310,311,309,309,311,310,310,311,306,306,306,306,309,4.0,-5.0,-5.0,9.8876953125,-27.587888717651367,-20.568845748901367,0.6712646484375,-0.3001708984375,-0.648681640625
1718353646.441,306,306,309,307,306,306,309,309,310,309,309,309,309,309,306,309,310,309,309,311,310,309,309,310,309,311,311,311,310,309,307,309,309,306,307,4.0,-5.0,-5.0,8.4228515625,-5.310058116912842,-29.602048873901367,0.6781005859375,-0.305419921875,-0.6204833984375
1718353646.451,309,306,306,307,309,309,310,306,309,309,309,309,307,307,306,309,309,306,309,309,309,310,311,311,309,311,309,310,311,311,309,306,306,306,307,4.0,-5.0,-5.0,18.00537109375,28.869626998901367,-35.58349609375,0.7242431640625,-0.29052734375,-0.718994140625
1718353646.461,306,309,307,309,309,309,309,306,306,310,309,309,307,309,307,310,307,309,310,309,310,309,309,309,310,311,311,310,311,309,306,309,306,306,306,4.0,-5.0,-5.0,28.015134811401367,73.974609375,-47.729488372802734,0.7828369140625,-0.271484375,-0.862060546875
1718353646.471,306,306,309,306,309,306,306,306,307,310,309,309,307,309,306,309,309,309,309,309,310,309,307,309,309,311,310,311,309,309,306,307,306,306,306,4.0,-5.0,-5.0,21.728513717651367,131.7138671875,-69.9462890625,0.854248046875,-0.271484375,-0.964599609375
1718353646.481,306,309,309,309,307,309,309,306,307,309,309,309,307,309,309,309,310,306,309,309,309,311,309,309,309,311,307,309,311,311,306,305,305,309,306,4.0,-5.0,-5.0,-5.493163585662842,201.35496520996094,-98.38866424560547,0.9442138671875,-0.289306640625,-1.00732421875
1718353646.491,306,309,308,309,309,309,310,306,306,309,309,309,308,309,309,311,309,310,309,311,309,308,309,309,309,311,311,310,310,311,306,306,306,306,309,4.0,-5.0,-5.0,-44.250484466552734,261.29150390625,-123.65721893310547,1.0352783203125,-0.285888671875,-0.9471435546875
1718353646.501,306,306,309,309,306,309,309,309,309,309,309,309,309,309,309,310,311,309,309,309,310,309,309,311,309,309,311,310,310,311,306,306,309,306,306,4.0,-5.0,-5.0,-81.78710174560547,294.25048828125,-141.11328125,1.07568359375,-0.24365234375,-0.7838134765625
1718353646.511,309,306,309,306,309,309,309,306,309,309,309,309,309,306,305,311,309,309,309,309,309,309,309,309,311,311,310,311,311,311,306,306,306,306,307,4.0,-5.0,-5.0,-107.23876190185547,307.67822265625,-156.43310546875,1.0048828125,-0.202392578125,-0.60791015625
1718353646.521,306,309,306,309,309,309,309,309,309,311,306,306,307,309,306,309,309,310,309,309,309,309,307,310,309,309,309,310,311,311,306,309,306,306,309,4.0,-5.0,-5.0,-112.24364471435547,305.419921875,-171.20359802246094,0.83935546875,-0.201904296875,-0.447265625
1718353646.531,306,306,309,309,309,309,306,309,309,309,309,307,309,309,309,310,309,309,310,310,309,310,309,310,309,311,309,309,311,309,308,306,308,306,309,-1.0,-11.0,0.0,-98.93798065185547,288.4521484375,-172.79051208496094,0.6824951171875,-0.2034912109375,-0.283203125
1718353646.541,307,306,306,309,309,306,310,310,309,309,306,306,309,309,308,300,309,309,309,311,309,310,311,309,310,310,311,311,311,309,306,307,308,306,306,-1.0,-11.0,0.0,-80.81053924560547,278.076171875,-152.099609375,0.620361328125,-0.1531982421875,-0.1650390625
1718353646.551,309,311,306,309,309,309,309,306,309,309,309,309,306,309,309,309,309,309,309,310,306,309,309,310,311,311,311,310,309,311,306,307,306,306,306,-1.0,-11.0,0.0,-66.83349609375,291.44287109375,-119.87303924560547,0.654296875,-0.0595703125,-0.0947265625
1718353646.561,306,309,307,309,309,309,309,310,309,310,306,309,309,309,309,307,309,309,309,309,307,309,307,309,308,309,310,311,311,309,306,306,306,309,306,-1.0,-11.0,0.0,-59.875484466552734,329.5898132324219,-97.47313690185547,0.7454833984375,0.0155029296875,0.00341796875
1718353646.571,309,309,306,309,306,309,311,309,309,309,306,309,309,309,307,309,309,309,309,309,309,310,309,310,311,313,311,311,311,311,307,306,309,309,306,-1.0,-11.0,0.0,-65.91796875,402.4047546386719,-95.88622283935547,0.8446044921875,0.0406494140625,0.0928955078125
1718353646.581,309,309,308,309,309,307,309,309,310,310,309,309,309,309,309,310,310,300,309,310,310,310,309,305,310,311,312,311,310,311,306,308,306,306,308,-1.0,-11.0,0.0,-82.82469940185547,500.6713562011719,-105.65184783935547,0.884765625,0.0126953125,0.10400390625
1718353646.591,306,307,309,309,309,306,310,309,309,309,309,309,309,309,306,309,309,309,309,309,309,309,310,309,309,311,311,311,310,309,306,309,306,306,306,-1.0,-11.0,0.0,-90.51512908935547,568.7255859375,-107.29979705810547,0.8582763671875,-0.05517578125,0.1162109375
1718353646.601,306,307,309,306,309,310,309,306,309,309,309,309,307,306,309,309,309,309,306,307,309,309,310,309,309,309,311,311,311,310,309,306,306,305,306,-1.0,-11.0,0.0,-75.62255859375,576.96533203125,-90.94237518310547,0.83837890625,-0.0989990234375,0.16845703125
1718353646.611,309,306,309,304,307,307,309,306,309,311,309,309,306,309,309,310,309,311,309,311,309,309,309,306,309,311,311,311,311,310,306,307,306,308,306,-1.0,-11.0,0.0,-49.560543060302734,548.64501953125,-59.753414154052734,0.8719482421875,-0.0916748046875,0.194091796875
1718353646.622,306,309,309,309,309,308,306,309,309,309,310,309,309,309,306,310,311,309,309,309,309,310,306,309,309,311,311,311,311,311,306,306,306,306,309,-1.0,-11.0,0.0,-27.954099655151367,502.3193054199219,-22.399900436401367,0.94921875,-0.05224609375,0.19091796875
1718353646.631,309,309,305,309,310,309,309,309,309,309,309,309,306,306,309,309,306,309,311,309,310,309,310,311,309,311,310,311,311,310,305,308,306,306,309,-2.0,-8.0,17.0,-16.357421875,449.3407897949219,8.30078125,1.037353515625,0.0006103515625,0.1993408203125
1718353646.641,306,309,307,309,309,310,309,309,309,309,309,309,306,309,309,309,310,309,309,309,310,306,311,306,309,309,311,310,310,311,309,306,306,306,306,-2.0,-8.0,17.0,-18.49365234375,414.3066101074219,19.4091796875,1.097412109375,0.052978515625,0.2296142578125
1718353646.651,306,306,309,309,305,311,306,309,310,310,306,309,309,309,309,310,309,309,310,307,306,309,309,309,306,309,311,311,311,310,309,306,309,309,307,-2.0,-8.0,17.0,-40.161128997802734,417.7245788574219,9.27734375,1.1099853515625,0.0560302734375,0.295166015625
1718353646.661,306,307,306,300,299,306,309,309,306,309,306,309,306,306,306,309,309,308,310,311,309,309,306,309,310,310,311,311,310,311,307,309,306,306,309,-2.0,-8.0,17.0,-75.01220703125,451.1718444824219,-11.962889671325684,1.0477294921875,0.0496826171875,0.423583984375
1718353646.672,307,305,306,307,309,306,309,309,309,309,309,306,309,309,309,309,310,309,309,311,309,309,310,309,310,309,310,311,311,311,306,306,306,307,307,-2.0,-8.0,17.0,-100.03661346435547,481.9945983886719,-36.376953125,0.883056640625,0.078125,0.6251220703125
1718353646.681,306,307,309,306,309,307,307,307,307,309,309,306,309,309,309,307,309,310,309,309,306,309,309,309,309,310,311,312,309,311,309,306,309,306,305,-2.0,-8.0,17.0,-92.16307830810547,484.1308288574219,-59.143062591552734,0.6611328125,0.0472412109375,0.8724365234375
1718353646.691,309,309,306,309,307,309,309,307,309,309,309,309,309,306,309,311,309,309,309,309,309,310,310,310,310,311,310,311,309,311,309,306,307,305,306,-2.0,-8.0,17.0,-48.522945404052734,459.4726257324219,-67.3828125,0.4996337890625,-0.0787353515625,1.1002197265625
1718353646.701,307,309,306,309,310,306,310,307,309,306,306,309,310,309,309,309,309,309,309,309,309,309,307,309,307,311,311,311,311,309,309,309,307,307,306,-2.0,-8.0,17.0,7.812499523162842,438.2323913574219,-46.569820404052734,0.4986572265625,-0.201904296875,1.17578125
1718353646.711,306,306,309,309,309,309,309,309,311,310,309,309,309,306,309,310,309,310,309,309,300,309,309,310,309,311,311,311,311,309,306,306,306,307,306,-2.0,-8.0,17.0,47.363277435302734,437.9272155761719,1.7700194120407104,0.6634521484375,-0.2166748046875,0.99560546875
1718353646.721,306,309,306,309,309,311,309,309,309,311,309,309,309,306,306,310,309,311,309,309,310,311,310,309,311,311,313,311,311,309,309,306,306,306,308,-2.0,-8.0,17.0,64.0869140625,419.0063171386719,57.617183685302734,0.9183349609375,-0.1287841796875,0.718017578125
1718353646.731,308,309,306,309,309,311,309,307,311,309,309,309,309,309,309,308,310,311,309,306,310,311,309,310,309,307,311,310,309,309,306,305,307,306,308,-2.0,7.0,24.0,68.42041015625,350.6469421386719,94.48241424560547,1.1400146484375,0.017578125,0.5897216796875
1718353646.741,306,309,309,306,309,309,309,309,311,309,309,306,306,306,307,309,306,309,310,310,307,309,307,310,309,311,310,311,311,310,306,309,308,307,305,-2.0,7.0,24.0,58.898921966552734,284.66796875,90.57616424560547,1.2120361328125,0.2032470703125,0.619873046875
1718353646.751,306,309,306,306,309,310,309,309,309,309,309,309,309,306,307,309,309,309,309,309,310,311,309,309,309,311,311,311,310,309,309,309,306,306,306,-2.0,7.0,24.0,28.991697311401367,282.1044921875,38.14697265625,1.083740234375,0.330322265625,0.7000732421875
1718353646.761,306,309,306,307,309,309,309,307,309,309,307,309,309,309,309,310,309,309,309,309,308,307,309,309,310,311,310,310,311,311,309,306,309,309,306,-2.0,7.0,24.0,-7.995604991912842,324.7070007324219,-46.325679779052734,0.7520751953125,0.2890625,0.8155517578125
1718353646.771,306,307,306,309,306,309,306,309,309,309,309,309,309,306,309,309,309,309,310,310,310,309,309,309,309,310,311,309,310,311,309,307,309,306,309,-2.0,7.0,24.0,-25.390623092651367,362.5487976074219,-128.84521484375,0.2857666015625,0.1156005859375,0.9349365234375
1718353646.781,306,307,306,306,309,309,309,309,309,309,309,310,306,306,309,309,310,307,309,309,309,309,309,309,311,310,311,311,311,309,306,306,309,306,306,-2.0,7.0,24.0,-12.817381858825684,377.3803405761719,-177.06297302246094,-0.1651611328125,-0.0938720703125,0.969970703125
1718353646.791,306,306,306,309,309,309,309,307,306,309,307,309,309,309,306,309,311,310,310,309,309,309,309,310,309,309,311,309,311,309,306,306,306,309,306,-2.0,7.0,24.0,16.29638671875,365.2343444824219,-171.14256286621094,-0.44482421875,-0.2750244140625,0.916259765625
1718353646.801,305,307,310,309,309,311,309,310,309,309,309,309,307,309,309,310,311,310,310,309,309,309,309,310,309,311,311,310,311,311,306,306,306,306,307,-2.0,7.0,24.0,41.320796966552734,329.4677429199219,-112.91503143310547,-0.47119140625,-0.354248046875,0.833740234375
1718353646.811,306,309,309,307,311,309,309,309,309,309,309,309,309,307,309,310,310,309,309,309,309,309,309,309,310,313,311,311,309,311,307,309,308,306,306,-2.0,7.0,24.0,45.471187591552734,289.0625,-26.794431686401367,-0.26806640625,-0.288330078125,0.7662353515625
1718353646.821,306,309,307,309,309,309,309,311,306,308,309,309,306,310,300,309,310,311,309,309,309,309,309,309,310,309,311,311,313,313,306,307,309,306,309,-2.0,7.0,24.0,25.207517623901367,255.06590270996094,54.382320404052734,0.34765625,0.0577392578125,0.853271484375
1718353646.831,307,306,309,309,307,309,307,308,309,310,309,309,309,309,306,310,309,309,310,309,309,309,311,309,309,311,311,311,312,311,308,309,306,306,306,-2.0,17.0,32.0,-7.019042491912842,227.11180114746094,101.80663299560547,0.34765625,0.0577392578125,0.853271484375
1718353646.841,307,309,309,306,306,309,311,309,309,309,309,309,306,310,307,309,309,309,309,310,309,309,309,309,309,311,311,311,309,309,306,307,306,306,306,-2.0,17.0,32.0,-36.56005859375,212.28025817871094,101.19628143310547,0.4739990234375,0.1968994140625,1.00390625
1718353646.851,306,309,306,309,309,309,309,306,309,311,309,309,309,309,306,309,309,306,309,310,309,306,309,310,311,309,311,310,310,311,306,306,305,306,306,-2.0,17.0,32.0,-56.640621185302734,218.87205505371094,59.814449310302734,0.1119384765625,0.21533203125,1.339111328125
1718353646.861,297,309,296,299,298,309,309,310,309,309,306,309,309,300,309,306,309,309,309,309,309,308,309,309,309,310,310,309,310,309,308,306,309,306,306,-2.0,17.0,32.0,-69.82421875,314.63623046875,-46.997066497802734,0.1119384765625,0.21533203125,1.339111328125
1718353646.871,306,309,308,319,309,309,298,297,298,309,309,309,306,309,310,311,309,311,311,309,310,309,311,309,310,310,307,311,311,309,306,306,309,306,307,-2.0,17.0,32.0,-69.82421875,314.63623046875,-46.997066497802734,-0.155517578125,0.0657958984375,1.406982421875
1718353646.882,308,306,307,309,309,310,309,310,310,309,309,306,309,309,309,309,309,309,310,310,309,306,309,310,309,311,310,311,309,311,306,309,306,309,306,-2.0,17.0,32.0,-55.603023529052734,381.6528015136719,-72.32666015625,-0.56103515625,-0.13232421875,1.1356201171875
1718353646.891,306,309,310,307,306,309,309,309,309,311,309,309,310,309,306,309,310,310,310,309,306,307,309,309,309,311,310,311,311,311,309,307,306,306,306,-2.0,17.0,32.0,38.2080078125,412.6586608886719,-59.997554779052734,-0.56103515625,-0.13232421875,1.1356201171875
1718353646.901,309,309,309,309,309,309,309,309,309,309,309,310,308,306,309,309,307,309,309,309,311,309,310,309,311,311,311,311,309,310,308,309,306,306,309,-2.0,17.0,32.0,38.2080078125,412.6586608886719,-59.997554779052734,-0.697998046875,-0.1929931640625,0.890625
1718353646.911,306,309,309,306,309,310,310,305,311,309,309,311,306,309,309,309,309,307,309,309,309,309,310,309,309,311,309,311,310,310,309,306,306,305,306,-2.0,17.0,32.0,81.60399627685547,354.5531921386719,-32.71484375,-0.7919921875,-0.215087890625,0.5740966796875
1718353646.921,306,306,309,309,309,310,306,309,309,309,309,308,307,309,309,309,306,310,310,310,308,310,309,309,309,309,311,300,312,310,307,307,306,306,306,-2.0,17.0,32.0,85.02196502685547,215.57615661621094,38.6962890625,-0.7919921875,-0.215087890625,0.5740966796875
1718353646.931,306,309,306,307,309,306,309,309,307,309,306,308,309,309,309,309,309,309,311,309,310,309,311,311,309,309,310,311,311,310,305,305,306,307,306,1.0,30.0,21.0,85.02196502685547,215.57615661621094,38.6962890625,-0.695068359375,-0.1553955078125,0.5496826171875
1718353646.941,306,309,309,308,309,309,310,306,307,309,310,309,306,309,309,310,309,309,310,309,309,309,309,309,310,311,313,310,312,311,309,306,306,306,306,1.0,30.0,21.0,36.31591796875,217.04100036621094,68.05419921875,-0.364990234375,0.043212890625,0.5208740234375
1718353646.951,305,307,306,309,309,309,309,309,309,309,309,307,309,309,306,308,310,309,309,309,309,309,309,310,306,311,310,309,310,309,307,306,306,306,306,1.0,30.0,21.0,-74.5849609375,292.48046875,89.72167205810547,-0.364990234375,0.043212890625,0.5208740234375
1718353646.962,306,309,300,296,309,298,309,309,298,300,307,300,309,309,299,296,297,311,311,298,292,299,306,299,309,310,300,300,299,311,307,306,306,306,309,1.0,30.0,21.0,-89.41649627685547,254.08934020996094,85.02196502685547,-0.178466796875,0.197509765625,0.47802734375
1718353646.973,307,306,309,307,306,306,309,310,310,309,308,309,309,309,309,309,310,310,311,306,309,309,309,309,309,311,312,300,310,309,306,307,309,309,298,1.0,30.0,21.0,-89.41649627685547,254.08934020996094,85.02196502685547,-0.156494140625,0.2587890625,0.5565185546875
1718353646.982,306,306,306,309,306,309,298,311,309,309,309,310,309,307,309,310,309,309,309,309,309,309,309,310,309,310,311,310,312,311,309,307,306,306,307,1.0,30.0,21.0,-44.799800872802734,32.5927734375,43.640132904052734,-0.156494140625,0.2587890625,0.5565185546875
1718353646.991,298,309,300,298,298,309,309,306,309,309,306,309,309,299,309,309,310,298,300,300,310,309,309,309,309,311,311,311,311,309,306,306,306,306,306,1.0,30.0,21.0,-44.799800872802734,32.5927734375,43.640132904052734,-0.1856689453125,0.290283203125,0.7008056640625
1718353647.001,306,309,309,309,308,309,309,306,309,309,309,307,306,307,309,309,310,309,309,300,309,309,309,309,309,310,310,309,309,311,309,309,306,309,306,1.0,30.0,21.0,-21.911619186401367,-33.8134765625,5.798339366912842,-0.2840576171875,0.277099609375,0.840576171875
1718353647.011,305,309,309,304,306,309,309,309,309,309,306,306,309,309,309,310,311,310,309,307,311,307,306,309,310,311,311,309,309,311,306,306,305,309,307,1.0,30.0,21.0,-11.169432640075684,38.75732421875,-77.392578125,-0.4415283203125,0.204345703125,0.8922119140625
1718353647.021,305,306,310,309,309,309,309,309,309,309,306,309,310,309,309,309,310,311,309,310,306,309,310,309,310,309,309,311,311,311,308,306,308,306,309,1.0,30.0,21.0,-11.169432640075684,38.75732421875,-77.392578125,-0.6163330078125,0.091552734375,0.83447265625
1718353647.031,306,309,308,309,309,306,309,309,309,309,307,306,307,309,309,309,309,310,310,309,306,309,309,309,309,309,310,311,311,311,306,309,306,309,309,0.0,30.0,17.0,-4.33349609375,102.78319549560547,-99.79247283935547,-0.8995361328125,-0.0755615234375,0.568603515625
1718353647.041,306,307,309,309,306,309,309,309,309,310,309,309,309,306,306,310,311,311,309,311,309,311,306,309,309,311,310,311,311,312,306,306,306,306,306,0.0,30.0,17.0,9.27734375,135.68115234375,-102.96630096435547,-0.8995361328125,-0.0755615234375,0.568603515625
1718353647.051,306,309,310,309,309,306,309,309,309,307,306,309,311,306,307,310,310,307,309,309,310,309,309,310,309,300,311,311,313,311,306,306,306,306,306,0.0,30.0,17.0,21.972654342651367,131.28662109375,-87.76854705810547,-0.89306640625,-0.1329345703125,0.3359375
1718353647.061,309,308,307,309,309,310,309,309,306,309,310,309,307,309,306,309,309,311,309,310,309,310,309,309,310,310,311,311,310,310,308,307,306,304,305,0.0,30.0,17.0,20.751951217651367,42.846675872802734,-8.72802734375,-0.89306640625,-0.1329345703125,0.3359375
1718353647.071,308,309,309,309,309,309,309,308,309,309,306,309,305,309,310,309,309,311,310,311,310,307,309,309,309,311,310,311,310,311,306,306,306,306,306,0.0,30.0,17.0,20.751951217651367,42.846675872802734,-8.72802734375,-0.73388671875,-0.0687255859375,0.251953125
1718353647.081,305,306,309,309,309,306,307,310,309,310,309,307,309,309,309,309,309,310,311,309,309,309,309,310,309,309,310,312,313,311,306,306,309,308,309,0.0,30.0,17.0,9.27734375,-42.541500091552734,39.4287109375,-0.3704833984375,0.1436767578125,0.308349609375
1718353647.091,306,309,309,310,309,310,309,309,306,309,309,309,309,308,309,309,309,310,306,310,309,309,309,307,310,311,309,310,311,311,307,306,307,306,306,0.0,30.0,17.0,-18.5546875,-278.1982421875,79.4677734375,-0.3704833984375,0.1436767578125,0.308349609375
1718353647.101,306,306,309,309,309,309,309,309,309,309,309,306,306,309,309,309,310,310,310,310,309,309,309,309,310,311,311,310,311,311,306,309,308,306,307,0.0,30.0,17.0,-18.5546875,-278.1982421875,79.4677734375,-0.3157958984375,0.1910400390625,0.44921875
1718353647.111,307,306,307,309,309,307,307,309,309,310,308,309,309,306,306,309,309,310,309,309,306,310,311,309,310,309,310,311,312,311,309,306,309,309,307,0.0,30.0,17.0,-33.87451171875,-387.5121765136719,57.250972747802734,-0.483642578125,0.046630859375,0.900390625
1718353647.121,309,309,309,309,309,309,309,309,310,309,309,309,309,306,307,310,311,311,310,309,310,310,309,310,310,311,309,310,310,310,307,308,306,306,306,0.0,30.0,17.0,-42.236324310302734,-496.4599304199219,-5.920409679412842,-0.483642578125,0.046630859375,0.900390625
1718353647.131,306,306,309,309,306,307,309,309,309,310,309,306,309,309,309,310,309,309,309,311,309,307,310,309,310,309,311,310,311,310,306,306,306,306,306,0.0,24.0,27.0,-30.578611373901367,-480.4687194824219,-16.6015625,-0.6043701171875,0.00341796875,1.125244140625
1718353647.141,306,307,309,309,309,307,309,309,309,310,305,309,309,307,306,311,309,310,311,309,306,310,310,309,310,309,309,311,311,309,309,307,306,306,309,0.0,24.0,27.0,-30.578611373901367,-480.4687194824219,-16.6015625,-0.5823974609375,-0.0963134765625,1.304443359375
1718353647.151,309,309,307,309,309,309,309,309,309,309,309,308,309,307,307,310,311,309,309,309,309,309,310,309,311,311,311,310,309,311,308,306,306,306,307,0.0,24.0,27.0,16.11328125,-403.5033874511719,17.578125,-0.5823974609375,-0.0963134765625,1.304443359375
1718353647.161,306,306,309,309,309,309,307,309,309,308,309,310,306,309,309,310,311,309,309,310,309,309,309,309,307,312,311,311,311,310,306,309,306,298,309,0.0,24.0,27.0,32.77587890625,-367.3095397949219,47.119136810302734,-0.3902587890625,-0.0863037109375,1.263427734375
1718353647.171,296,298,298,293,293,313,309,297,298,299,311,298,310,307,309,311,300,311,309,299,300,298,309,309,309,311,311,311,310,309,305,306,307,309,306,0.0,24.0,27.0,28.686521530151367,-330.1391296386719,67.0166015625,0.12060546875,0.067626953125,1.145751953125
1718353647.182,309,309,309,309,309,307,308,309,309,309,309,309,309,310,306,309,309,309,309,309,300,310,310,309,307,298,300,301,300,313,309,306,296,296,309,0.0,24.0,27.0,17.08984375,-289.85595703125,66.58935546875,0.3017578125,0.1513671875,1.0091552734375
1718353647.192,307,309,308,307,309,306,309,309,306,310,306,308,309,296,309,309,300,300,300,311,310,310,309,309,309,311,309,309,311,311,309,306,306,309,309,0.0,24.0,27.0,15.075682640075684,-264.83154296875,39.61181640625,0.3017578125,0.1513671875,1.0091552734375
1718353647.201,306,306,309,309,308,309,309,307,309,309,307,309,309,306,309,311,309,311,308,310,309,310,310,306,309,311,311,313,310,310,308,309,308,305,307,0.0,24.0,27.0,15.075682640075684,-264.83154296875,39.61181640625,0.2237548828125,0.1322021484375,0.6602783203125
1718353647.211,305,309,306,298,299,309,309,310,309,309,309,309,309,309,309,309,310,311,309,309,307,309,309,306,310,311,311,311,311,310,309,306,306,305,309,0.0,24.0,27.0,-11.291502952575684,-280.2734375,-61.645503997802734,0.0023193359375,-0.0084228515625,0.71630859375
1718353647.221,306,309,309,309,309,309,309,309,309,311,309,309,309,306,309,309,309,311,309,311,309,310,310,310,307,309,310,311,311,310,305,306,306,307,308,0.0,24.0,27.0,-64.8193359375,-284.48486328125,-82.45848846435547,0.0023193359375,-0.0084228515625,0.71630859375
1718353647.231,306,309,307,310,309,309,309,309,309,309,309,309,309,307,309,310,311,310,309,309,309,309,309,309,309,311,310,310,311,311,306,309,307,309,308,-2.0,11.0,28.0,-64.8193359375,-284.48486328125,-82.45848846435547,-0.2135009765625,-0.1856689453125,1.20068359375
1718353647.241,305,309,306,309,309,309,310,309,306,309,309,310,309,307,307,309,310,306,309,309,309,309,309,309,309,311,311,309,311,311,306,306,306,306,306,-2.0,11.0,28.0,-96.92382049560547,-278.86962890625,-31.799314498901367,-0.2135009765625,-0.1856689453125,1.20068359375
1718353647.251,309,307,307,309,309,309,309,309,309,309,308,309,306,307,307,309,309,309,311,309,310,309,309,309,309,310,310,310,311,311,306,306,306,306,306,-2.0,11.0,28.0,-96.92382049560547,-278.86962890625,-31.799314498901367,-0.1422119140625,-0.166748046875,1.257080078125
1718353647.261,308,309,306,309,309,307,309,309,309,307,306,309,309,309,309,306,309,309,309,309,309,309,309,309,306,311,311,311,311,310,306,308,309,306,306,-2.0,11.0,28.0,-43.823238372802734,-286.9873046875,0.1220703050494194,0.187255859375,-0.1065673828125,0.6678466796875
1718353647.271,306,309,309,300,309,310,309,309,309,310,309,309,306,309,309,310,307,309,309,309,309,310,309,309,309,310,309,311,310,311,308,306,306,307,309,-2.0,11.0,28.0,53.710933685302734,-372.7416687011719,40.222164154052734,0.3433837890625,-0.132080078125,0.511962890625
1718353647.281,306,306,306,306,307,306,309,309,300,309,306,309,309,309,306,309,309,311,309,308,309,310,309,307,309,309,310,311,311,310,307,306,309,306,306,-2.0,11.0,28.0,26.489255905151367,-399.9633483886719,52.246089935302734,0.3433837890625,-0.132080078125,0.511962890625
1718353647.291,306,309,309,309,309,309,307,309,309,309,309,309,310,309,305,311,310,309,309,309,309,310,309,306,309,310,310,311,310,311,309,306,306,308,309,-2.0,11.0,28.0,26.489255905151367,-399.9633483886719,52.246089935302734,0.4874267578125,-0.1356201171875,0.9373779296875
1718353647.301,306,309,307,309,309,309,309,309,306,309,310,309,309,307,309,309,309,309,309,309,309,309,309,309,309,309,311,310,311,312,309,308,306,306,306,-2.0,11.0,28.0,-130.43212890625,-251.52586364746094,62.011714935302734,0.4874267578125,-0.1356201171875,0.9373779296875
1718353647.311,306,306,309,309,306,309,309,309,310,309,309,306,306,309,309,311,309,309,311,309,309,311,309,309,310,311,311,309,311,311,306,306,305,309,306,-2.0,11.0,28.0,-130.43212890625,-251.52586364746094,62.011714935302734,0.5635986328125,-0.087158203125,1.159912109375
1718353647.321,305,306,309,308,306,306,306,309,311,310,307,309,307,307,309,309,309,309,309,309,307,309,309,309,309,310,310,311,311,312,306,309,306,309,306,-2.0,11.0,28.0,-166.25975036621094,-170.89842224121094,57.067867279052734,0.7177734375,0.0181884765625,1.25341796875
1718353647.331,305,309,309,309,309,310,309,309,306,306,309,310,309,309,309,309,309,310,310,309,309,309,307,309,309,310,313,311,309,309,306,309,306,305,305,0.0,2.0,18.0,-57.678218841552734,-188.11033630371094,24.291990280151367,0.679443359375,0.0020751953125,1.013427734375
1718353647.341,306,305,306,309,309,309,310,307,309,310,309,309,309,309,309,309,309,311,309,309,310,309,309,307,309,311,311,312,310,310,306,306,307,309,309,0.0,2.0,18.0,-57.678218841552734,-188.11033630371094,24.291990280151367,0.679443359375,0.0020751953125,1.013427734375
1718353647.351,308,306,309,309,309,306,307,309,311,309,307,309,309,306,309,309,309,309,309,309,311,310,310,309,311,309,311,310,311,311,306,306,306,306,306,0.0,2.0,18.0,15.930174827575684,-216.73582458496094,1.03759765625,0.38525390625,-0.251708984375,0.1220703125
1718353647.361,306,309,309,306,307,309,309,309,309,309,309,310,306,309,309,309,310,311,307,310,307,309,309,309,309,309,309,310,309,310,306,306,306,306,309,0.0,2.0,18.0,13.793944358825684,-278.564453125,0.9155272841453552,0.38525390625,-0.251708984375,0.1220703125
1718353647.371,306,306,310,309,306,306,309,309,311,309,306,309,306,309,309,309,309,309,311,309,309,310,310,306,307,311,309,311,311,311,309,305,306,307,306,0.0,2.0,18.0,13.793944358825684,-278.564453125,0.9155272841453552,0.31494140625,-0.4102783203125,0.02587890625
1718353647.381,306,309,308,298,292,309,309,307,309,306,327,309,310,300,310,310,309,309,310,309,309,310,309,310,309,310,311,311,311,309,306,306,306,307,305,0.0,2.0,18.0,-178.52781677246094,-248.90135192871094,97.59520721435547,0.6383056640625,-0.3414306640625,0.9273681640625
1718353647.391,309,306,306,309,309,309,309,309,306,309,309,309,306,310,309,311,309,309,309,298,309,310,297,300,300,311,311,311,311,311,309,306,307,306,306,0.0,2.0,18.0,-260.43701171875,-142.02880859375,125.97655487060547,1.1507568359375,-0.0316162109375,1.66162109375
1718353647.401,309,307,309,309,309,310,310,306,309,309,309,309,307,306,309,311,311,310,310,309,310,309,306,309,309,311,309,309,311,311,307,306,306,306,306,0.0,2.0,18.0,-260.43701171875,-142.02880859375,125.97655487060547,1.2840576171875,0.07373046875,1.6494140625
1718353647.411,305,306,309,310,309,309,306,309,309,309,308,306,307,309,309,309,309,310,309,309,309,310,309,311,309,309,309,311,310,311,307,306,309,309,306,0.0,2.0,18.0,-263.0615234375,16.29638671875,91.00341033935547,0.9517822265625,-0.1087646484375,1.1966552734375
1718353647.421,306,309,307,309,309,309,309,309,306,309,309,307,309,309,309,311,310,309,311,306,309,309,309,309,306,311,311,311,311,310,306,307,308,306,306,0.0,2.0,18.0,-89.11132049560547,22.338865280151367,-15.075682640075684,0.9517822265625,-0.1087646484375,1.1966552734375
1718353647.431,309,309,309,308,309,309,309,309,309,309,309,309,306,310,309,311,309,309,311,310,308,307,308,309,311,310,311,310,310,311,306,305,309,306,309,3.0,0.0,16.0,-42.419429779052734,-8.7890625,-18.6767578125,0.7669677734375,-0.298095703125,0.83837890625
1718353647.441,306,310,306,309,309,309,309,311,309,309,309,306,309,309,309,309,310,309,306,310,309,309,309,309,309,311,309,311,311,311,306,306,309,309,309,3.0,0.0,16.0,-50.109859466552734,69.4580078125,-10.559081077575684,0.78369140625,-0.3399658203125,0.7515869140625
1718353647.451,306,310,309,309,309,310,311,300,309,309,309,309,307,309,309,309,309,310,309,310,309,309,309,309,310,310,311,311,310,310,306,306,306,309,307,3.0,0.0,16.0,-73.2421875,190.06346130371094,4.8828125,0.78369140625,-0.3399658203125,0.7515869140625
1718353647.461,307,309,309,309,309,309,306,309,310,309,309,309,306,309,309,310,311,311,310,311,311,309,306,310,306,311,309,309,310,311,306,309,307,306,306,3.0,0.0,16.0,-73.2421875,190.06346130371094,4.8828125,0.9342041015625,-0.2239990234375,0.5267333984375
1718353647.471,306,306,309,309,309,311,306,306,309,309,306,309,308,307,305,307,300,310,309,310,309,309,309,309,309,311,311,310,313,311,309,306,306,309,306,3.0,0.0,16.0,-72.509765625,273.8037109375,20.996091842651367,0.9566650390625,-0.14111328125,0.47802734375
1718353647.481,309,309,310,309,309,309,309,309,309,307,309,309,309,306,307,309,309,309,309,309,309,308,309,309,307,311,310,311,311,311,309,309,306,309,309,3.0,0.0,16.0,-61.706539154052734,250.48826599121094,3.051757574081421,0.9566650390625,-0.14111328125,0.47802734375
1718353647.491,306,309,306,307,309,309,306,310,309,310,309,309,307,308,309,309,309,310,309,309,309,309,307,309,309,311,309,311,311,311,306,307,305,307,306,3.0,0.0,16.0,-61.706539154052734,250.48826599121094,3.051757574081421,0.7744140625,-0.15576171875,0.5252685546875
1718353647.501,306,300,300,306,306,310,309,307,309,309,309,309,306,310,309,309,310,309,309,311,310,306,309,310,309,309,311,311,313,311,306,309,309,306,308,3.0,0.0,16.0,-54.748531341552734,203.00291442871094,-46.936031341552734,0.6219482421875,-0.2545166015625,0.60205078125
1718353647.511,306,309,309,306,306,311,309,309,309,309,309,309,306,309,309,309,309,309,310,309,309,309,309,309,309,311,311,310,311,311,306,309,306,306,309,3.0,0.0,16.0,-46.813961029052734,188.78172302246094,-51.452632904052734,0.6219482421875,-0.2545166015625,0.60205078125
1718353647.521,307,306,306,309,309,307,308,309,309,307,306,309,309,309,309,311,310,311,309,311,311,301,309,309,309,311,311,309,311,311,306,306,306,309,309,3.0,0.0,16.0,-46.813961029052734,188.78172302246094,-51.452632904052734,0.158203125,-0.5521240234375,0.5694580078125
1718353647.531,306,309,307,306,309,309,309,309,311,310,310,309,306,310,311,300,302,310,309,309,309,310,311,309,309,309,312,311,311,311,307,308,309,306,309,4.0,2.0,20.0,-56.640621185302734,218.01756286621094,25.390623092651367,0.226806640625,-0.4483642578125,0.5548095703125
1718353647.541,306,309,307,309,309,309,309,309,310,309,309,306,310,309,309,309,309,307,310,309,310,309,309,309,309,311,311,311,311,311,306,309,306,306,308,4.0,2.0,20.0,-70.73974609375,213.98924255371094,65.5517578125,0.226806640625,-0.4483642578125,0.5548095703125
1718353647.551,309,309,309,309,306,306,309,310,310,309,309,309,309,309,307,310,298,309,309,309,310,309,309,309,309,311,311,311,311,310,306,306,307,306,309,4.0,2.0,20.0,-60.852046966552734,175.04881286621094,70.12939453125,0.47802734375,-0.2548828125,0.9774169921875
1718353647.561,306,306,306,309,309,306,309,310,309,307,307,309,306,309,309,309,309,309,309,309,309,307,309,309,309,310,310,311,309,311,306,306,309,306,309,4.0,2.0,20.0,-42.663570404052734,154.11376953125,51.330562591552734,0.4078369140625,-0.2840576171875,1.1353759765625
1718353647.571,306,306,309,306,307,310,310,309,306,309,306,309,310,305,306,311,309,311,309,306,309,309,310,309,309,312,312,310,309,310,306,306,307,306,306,4.0,2.0,20.0,-38.330078125,179.07713317871094,36.2548828125,0.4078369140625,-0.2840576171875,1.1353759765625
1718353647.581,309,309,307,307,306,309,309,310,309,306,309,309,307,309,309,310,309,309,310,309,306,307,309,309,308,309,310,310,311,310,306,306,306,306,305,4.0,2.0,20.0,-48.339839935302734,220.58103942871094,36.19384765625,0.481689453125,-0.3736572265625,0.96533203125
1718353647.591,305,306,309,306,306,307,309,309,308,310,307,309,306,307,309,309,309,306,306,298,302,292,309,309,310,310,311,311,311,311,306,309,306,306,306,4.0,2.0,20.0,-54.992671966552734,233.70359802246094,40.527339935302734,0.6029052734375,-0.3521728515625,0.8828125
1718353647.601,306,309,309,309,309,309,309,309,311,309,306,309,309,309,306,309,309,309,310,309,307,306,309,310,311,309,311,311,310,310,306,307,306,306,307,4.0,2.0,20.0,-40.161128997802734,197.63182067871094,34.24072265625,0.6029052734375,-0.3521728515625,0.8828125
1718353647.611,306,306,309,306,309,306,309,309,311,310,306,309,309,309,309,309,311,311,309,310,310,309,307,309,309,312,311,311,311,311,309,305,306,306,308,4.0,2.0,20.0,-40.161128997802734,197.63182067871094,34.24072265625,0.6336669921875,-0.311279296875,0.906494140625
1718353647.621,305,306,309,309,309,309,309,309,309,309,309,309,310,309,309,309,310,309,311,311,306,310,309,309,312,310,309,311,311,311,306,306,309,309,306,4.0,2.0,20.0,33.8134765625,64.453125,-16.4794921875,0.5185546875,-0.32958984375,0.917724609375
1718353647.631,300,309,309,309,309,309,309,309,309,310,306,309,309,309,309,307,310,309,310,311,309,311,310,310,309,310,310,311,310,311,306,306,306,306,305,4.0,5.0,16.0,55.053707122802734,33.14208984375,-43.457027435302734,0.3671875,-0.3685302734375,0.911376953125
1718353647.641,309,309,306,310,300,309,309,309,309,309,306,306,309,306,307,310,311,311,311,309,309,309,309,309,306,311,309,310,310,310,309,310,309,306,309,4.0,5.0,16.0,52.978511810302734,32.40966796875,-58.654781341552734,0.2242431640625,-0.4151611328125,0.9075927734375
1718353647.651,305,307,307,309,309,308,309,307,309,309,305,310,309,309,309,309,309,309,309,311,306,306,310,300,311,311,311,312,311,311,309,306,309,305,306,4.0,5.0,16.0,37.109375,39.61181640625,-57.861324310302734,0.0777587890625,-0.47314453125,0.932861328125
1718353647.661,306,307,307,308,309,310,307,309,309,309,309,309,306,309,307,309,309,309,309,310,309,309,309,309,309,309,310,310,311,310,309,306,305,306,306,4.0,5.0,16.0,22.705076217651367,36.07177734375,-43.029781341552734,0.0777587890625,-0.47314453125,0.932861328125
1718353647.671,306,305,306,309,309,309,309,309,309,309,305,310,306,309,309,309,309,309,309,310,310,309,310,309,309,311,311,310,311,309,306,306,306,306,306,4.0,5.0,16.0,22.705076217651367,36.07177734375,-43.029781341552734,-0.3602294921875,-0.6348876953125,1.04736328125
1718353647.681,306,309,307,306,309,309,309,309,309,307,309,309,306,310,309,309,309,310,309,309,310,306,309,310,309,311,311,311,311,311,306,309,297,300,306,4.0,5.0,16.0,24.658201217651367,-15.624999046325684,44.555660247802734,-0.337646484375,-0.61376953125,1.099609375
1718353647.691,306,306,306,307,309,309,309,306,306,310,310,307,306,306,309,309,309,309,309,306,311,307,310,309,309,311,311,311,311,310,305,306,309,309,306,4.0,5.0,16.0,41.870113372802734,-46.386714935302734,105.16356658935547,-0.10888671875,-0.5009765625,1.144287109375
1718353647.701,306,305,306,309,306,309,306,309,309,310,309,309,306,306,306,309,309,309,310,311,309,307,309,309,310,311,309,311,311,310,309,306,307,309,306,4.0,5.0,16.0,41.870113372802734,-46.386714935302734,105.16356658935547,0.164306640625,-0.36376953125,1.1768798828125
1718353647.711,306,309,309,309,309,306,309,310,309,310,307,309,310,309,306,309,311,309,309,309,308,309,309,309,309,313,312,309,310,311,309,309,309,306,309,4.0,5.0,16.0,81.05467987060547,-60.119625091552734,146.97265625,0.3974609375,-0.2451171875,1.2042236328125
1718353647.721,306,306,309,306,310,310,309,310,309,309,309,309,309,306,307,309,309,309,310,311,309,307,309,309,309,311,309,309,311,311,307,309,306,305,306,4.0,5.0,16.0,102.53905487060547,-38.63525390625,118.65233612060547,0.3974609375,-0.2451171875,1.2042236328125
1718353647.731,306,306,306,309,306,309,309,309,309,307,306,307,309,309,309,310,309,311,310,309,306,309,307,309,309,309,311,310,310,311,305,306,306,306,309,3.0,7.0,21.0,129.150390625,-0.8544921278953552,64.94140625,0.6297607421875,-0.08056640625,1.2724609375
1718353647.741,306,309,309,309,309,306,310,309,309,309,305,309,309,307,306,309,310,310,309,309,309,309,309,309,311,311,311,311,309,311,306,306,307,306,307,3.0,7.0,21.0,156.3720703125,42.236324310302734,-1.6479490995407104,0.582275390625,-0.0906982421875,1.2049560546875
1718353647.751,305,309,309,309,308,309,310,309,309,309,309,309,306,306,310,309,310,307,307,309,309,311,306,309,309,310,309,309,311,310,307,306,305,306,306,3.0,7.0,21.0,180.11473083496094,72.44873046875,-63.537593841552734,0.4844970703125,-0.1141357421875,1.093017578125
1718353647.761,306,309,309,309,306,309,306,309,308,309,309,309,307,309,309,309,309,311,311,309,310,306,309,309,309,310,309,310,311,311,306,306,307,306,306,3.0,7.0,21.0,180.11473083496094,72.44873046875,-63.537593841552734,0.3746337890625,-0.1234130859375,0.98828125
1718353647.771,306,306,307,307,306,309,309,309,306,310,305,308,309,307,306,309,309,309,311,309,306,310,310,310,309,309,310,310,310,311,308,309,306,309,306,3.0,7.0,21.0,214.23338317871094,83.37401580810547,-143.73779296875,0.25,-0.1456298828125,0.8040771484375
1718353647.781,309,309,310,309,307,309,310,309,309,309,309,309,306,307,309,310,310,307,309,309,307,309,309,309,307,310,310,310,311,311,308,307,306,305,309,3.0,7.0,21.0,220.15379333496094,73.66943359375,-163.75730895996094,0.0953369140625,-0.19580078125,0.4237060546875
1718353647.791,306,306,309,309,307,307,309,309,309,309,310,308,307,309,309,309,309,309,310,310,309,309,309,306,309,311,309,309,309,310,306,308,305,309,307,3.0,7.0,21.0,220.15379333496094,73.66943359375,-163.75730895996094,-0.093994140625,-0.2242431640625,0.556640625
1718353647.801,296,308,309,309,309,309,310,310,309,309,306,309,309,309,306,306,309,299,309,300,297,297,309,293,299,294,311,310,309,310,306,306,309,306,309,3.0,7.0,21.0,201.35496520996094,-25.756834030151367,-120.23925018310547,-0.2880859375,-0.1761474609375,1.0948486328125
1718353647.811,306,306,309,309,309,309,309,300,309,309,300,298,298,309,306,309,309,309,309,309,309,309,309,309,309,311,310,311,309,310,309,307,309,305,306,3.0,7.0,21.0,195.00730895996094,9.6435546875,-62.927242279052734,-0.26220703125,-0.0511474609375,1.295654296875
1718353647.821,306,306,307,309,307,309,309,309,309,307,306,306,307,309,309,309,309,309,310,309,309,311,309,306,309,311,309,310,310,310,306,306,307,306,306,3.0,7.0,21.0,209.41160583496094,61.523433685302734,-32.3486328125,-0.0284423828125,0.0218505859375,1.2718505859375
1718353647.831,305,309,309,307,309,307,307,309,309,309,306,309,309,309,309,309,309,309,309,309,306,309,310,309,309,309,310,311,311,311,306,308,306,306,307,-3.0,8.0,31.0,254.94383239746094,43.029781341552734,-43.518062591552734,0.1209716796875,-0.031982421875,1.158447265625
1718353647.842,306,307,309,307,310,309,309,309,309,309,309,306,309,307,307,309,306,310,309,310,306,310,306,309,310,310,311,311,311,310,307,306,307,309,309,-3.0,8.0,31.0,318.7255859375,-42.236324310302734,-66.83349609375,0.1766357421875,-0.1357421875,1.0858154296875
1718353647.851,306,309,311,306,309,309,309,309,309,309,309,306,309,309,306,311,309,311,311,309,309,310,306,309,309,309,311,309,309,310,306,306,309,305,307,-3.0,8.0,31.0,364.3798522949219,-117.55370330810547,-79.89501953125,0.2239990234375,-0.1988525390625,1.0423583984375
1718353647.861,305,309,309,309,309,309,310,310,309,309,306,309,309,307,305,311,309,310,309,309,309,309,309,311,309,309,309,311,311,309,307,307,306,306,307,-3.0,8.0,31.0,370.6054382324219,-112.48778533935547,-85.02196502685547,0.2286376953125,-0.172119140625,1.031982421875
1718353647.871,307,307,309,309,309,309,310,309,309,306,309,306,309,309,306,309,311,311,309,309,306,310,311,309,309,311,311,311,311,311,309,306,306,306,305,-3.0,8.0,31.0,353.3935241699219,-36.80419921875,-93.87206268310547,0.193115234375,-0.1292724609375,1.021728515625
