"// DN: 108, SN: 35"
Timestamp,P1,P2,P3,P4,P5,P6,P7,P8,P9,P10,P11,P12,P13,P14,P15,P16,P17,P18,P19,P20,P21,P22,P23,P24,P25,P26,P27,P28,P29,P30,P31,P32,P33,P34,P35,Mag_x,Mag_y,Mag_z,Gyro_x,Gyro_y,Gyro_z,Acc_x,Acc_y,Acc_z
1720596307.371,310,310,310,310,310,304,311,311,312,311,311,311,311,310,311,311,311,311,312,311,311,311,311,311,310,314,313,313,311,311,310,310,310,310,310,42.0,-13.0,40.0,-0.1220703050494194,-0.0610351525247097,-0.4272460639476776,-0.0067138671875,0.0045166015625,0.9876708984375
1720596307.381,310,311,310,310,310,311,311,311,311,311,311,311,311,311,310,310,311,312,310,311,312,311,311,311,311,312,313,312,313,312,310,310,310,310,311,42.0,-13.0,40.0,-0.1220703050494194,-0.0610351525247097,-0.4272460639476776,-0.0068359375,0.0040283203125,0.9876708984375
1720596307.391,310,310,310,311,311,301,311,310,311,310,311,311,310,311,310,311,311,311,311,311,311,312,311,311,311,311,313,311,312,312,310,310,310,310,310,42.0,-13.0,40.0,-0.1220703050494194,-0.0610351525247097,-0.4272460639476776,-0.00732421875,0.0037841796875,0.9876708984375
1720596307.401,310,310,311,311,311,311,311,310,311,311,310,310,310,311,310,311,311,310,311,311,311,310,310,310,311,311,311,312,313,312,310,310,310,310,310,42.0,-13.0,40.0,-0.0610351525247097,0.0,-0.4882812201976776,-0.0074462890625,0.003662109375,0.9881591796875
1720596307.411,310,310,310,310,311,310,311,311,311,310,311,311,311,311,310,311,311,310,311,311,311,311,311,311,311,312,311,311,312,310,310,310,310,308,311,42.0,-13.0,40.0,-0.1220703050494194,0.0610351525247097,-0.4882812201976776,-0.00732421875,0.00390625,0.9888916015625
1720596307.421,310,310,311,310,310,310,311,311,311,304,310,311,311,310,311,311,310,311,312,312,312,311,311,313,311,311,313,313,311,311,308,310,310,309,309,42.0,-13.0,40.0,-0.1220703050494194,0.1220703050494194,-0.4882812201976776,-0.0072021484375,0.00439453125,0.9893798828125
1720596307.431,310,310,311,310,310,311,310,310,311,311,311,310,310,311,311,311,311,311,311,311,310,312,310,312,310,312,311,312,311,311,310,285,310,310,310,40.0,-13.0,42.0,-0.1220703050494194,0.0610351525247097,-0.4882812201976776,-0.006591796875,0.0045166015625,0.9892578125
1720596307.441,310,310,310,310,310,311,311,310,311,311,311,311,311,311,311,311,311,311,311,312,311,311,311,311,311,312,311,312,311,311,310,310,310,309,312,40.0,-13.0,42.0,-0.0610351525247097,0.0,-0.4882812201976776,-0.006103515625,0.0042724609375,0.98828125
1720596307.451,309,310,310,310,310,311,311,311,311,311,310,311,311,311,310,311,311,311,311,311,311,311,311,311,311,311,311,310,311,312,310,309,316,310,310,40.0,-13.0,42.0,-0.0610351525247097,0.0,-0.4272460639476776,-0.0067138671875,0.00439453125,0.987548828125
1720596307.471,311,311,311,310,310,310,311,311,311,310,311,311,311,310,311,311,311,311,310,310,311,311,311,311,311,313,312,311,311,311,309,310,308,309,309,40.0,-13.0,42.0,-0.0610351525247097,0.0,-0.4272460639476776,-0.0081787109375,0.003662109375,0.9881591796875
1720596307.481,310,310,311,310,310,311,312,311,310,311,310,311,311,311,310,310,311,311,311,310,311,311,311,311,311,312,312,311,311,311,310,310,309,310,310,40.0,-13.0,42.0,-0.0610351525247097,0.0610351525247097,-0.4272460639476776,-0.0079345703125,0.0030517578125,0.988037109375
1720596307.491,310,311,310,310,311,311,311,311,311,311,311,310,311,311,310,312,310,310,311,311,310,310,311,311,311,311,312,312,312,313,308,304,310,310,310,40.0,-13.0,42.0,-0.0610351525247097,0.0610351525247097,-0.4272460639476776,-0.0078125,0.0025634765625,0.98779296875
1720596307.501,310,310,311,310,310,311,311,311,311,311,311,311,310,310,310,312,310,313,311,310,311,311,310,311,311,311,313,311,312,311,310,307,310,310,310,40.0,-13.0,42.0,-0.0610351525247097,0.0,-0.4272460639476776,-0.0076904296875,0.0035400390625,0.9874267578125
1720596307.511,310,309,311,310,310,311,310,311,311,311,311,310,310,310,311,313,310,310,310,310,311,311,311,311,311,311,311,312,311,311,311,310,309,310,310,40.0,-13.0,42.0,-0.0610351525247097,0.0,-0.4272460639476776,-0.0079345703125,0.00439453125,0.987060546875
1720596307.521,310,310,311,311,310,311,311,310,311,310,310,311,310,311,311,311,311,311,311,311,310,311,311,311,311,311,312,313,311,311,308,310,310,310,310,40.0,-13.0,42.0,-0.0610351525247097,0.0,-0.4272460639476776,-0.0079345703125,0.0042724609375,0.987060546875
1720596307.531,310,311,310,310,310,311,311,311,311,311,311,311,311,311,310,311,311,311,311,310,312,311,311,311,310,311,311,314,311,311,310,310,310,310,310,40.0,-13.0,42.0,-0.1220703050494194,0.0,-0.4272460639476776,-0.0078125,0.00439453125,0.9871826171875
1720596307.541,310,308,310,311,310,311,311,310,311,311,311,310,310,311,311,311,311,310,311,311,312,311,311,311,312,312,311,312,311,312,310,308,308,316,310,43.0,-15.0,47.0,-0.1220703050494194,0.0,-0.4882812201976776,-0.0078125,0.00439453125,0.9871826171875
1720596307.551,310,310,311,310,310,311,310,311,311,313,312,310,311,311,310,310,311,311,312,311,311,311,311,310,311,312,311,313,313,313,310,309,310,310,310,43.0,-15.0,47.0,-0.1220703050494194,0.0,-0.4882812201976776,-0.007568359375,0.0042724609375,0.987060546875
1720596307.561,309,310,311,310,309,311,311,311,311,310,311,310,311,311,310,311,311,310,311,310,312,311,311,311,311,311,312,312,312,311,310,310,310,308,338,43.0,-15.0,47.0,-0.1220703050494194,-0.0610351525247097,-0.4882812201976776,-0.007080078125,0.00390625,0.987060546875
1720596307.571,310,311,310,310,310,312,310,311,311,311,310,311,310,311,311,311,310,310,311,311,311,311,311,310,311,313,311,313,311,313,310,310,309,311,310,43.0,-15.0,47.0,-0.1220703050494194,-0.0610351525247097,-0.4272460639476776,-0.0069580078125,0.00390625,0.9874267578125
1720596307.581,310,310,311,310,310,311,310,311,311,311,311,311,311,310,311,311,311,311,311,311,310,311,311,311,312,311,311,312,311,311,316,308,310,311,310,43.0,-15.0,47.0,-0.1220703050494194,-0.0610351525247097,-0.4272460639476776,-0.0069580078125,0.004150390625,0.98779296875
1720596307.591,310,311,310,310,310,311,311,311,311,311,310,311,311,311,311,310,311,311,311,311,310,311,311,311,310,312,311,312,311,311,310,310,310,304,311,43.0,-15.0,47.0,-0.1220703050494194,0.0,-0.4882812201976776,-0.007080078125,0.0040283203125,0.9876708984375
1720596307.601,310,310,310,310,311,310,311,311,311,311,311,311,310,310,311,313,310,310,311,311,311,312,311,311,311,311,312,311,311,313,310,309,310,310,310,43.0,-15.0,47.0,-0.1220703050494194,0.0,-0.4882812201976776,-0.0072021484375,0.0040283203125,0.9873046875
1720596307.611,311,311,311,310,311,311,311,311,312,313,311,310,311,311,311,311,311,312,313,312,310,312,311,313,310,312,310,311,311,313,310,310,310,309,310,43.0,-15.0,47.0,-0.1220703050494194,0.0610351525247097,-0.4882812201976776,-0.007080078125,0.004150390625,0.9874267578125
1720596307.621,310,311,311,310,310,311,311,311,312,311,311,310,311,311,311,311,312,311,311,310,311,313,311,312,311,312,313,312,311,311,309,310,310,322,310,43.0,-15.0,47.0,-0.0610351525247097,0.0610351525247097,-0.4882812201976776,-0.0068359375,0.00390625,0.988037109375
1720596307.641,310,310,310,312,310,311,310,311,312,311,311,311,311,313,310,313,311,311,311,311,310,311,311,311,310,312,311,313,312,312,310,310,310,310,310,40.0,-15.0,43.0,-0.1220703050494194,0.0,-0.4882812201976776,-0.008056640625,0.00439453125,0.9873046875
1720596307.651,310,310,311,310,311,311,311,311,312,311,311,311,310,312,310,311,311,312,311,310,312,312,311,312,311,313,313,311,311,311,310,311,310,313,307,40.0,-15.0,43.0,-0.1220703050494194,0.0,-0.4272460639476776,-0.008544921875,0.004638671875,0.9869384765625
1720596307.661,310,310,311,310,310,310,310,311,311,311,310,310,311,311,311,311,310,311,312,311,311,311,311,310,311,311,311,312,312,312,310,308,309,309,310,40.0,-15.0,43.0,-0.1220703050494194,0.0610351525247097,-0.4272460639476776,-0.008056640625,0.0045166015625,0.9871826171875
1720596307.671,310,310,310,310,310,311,311,310,310,311,311,311,310,311,311,311,311,311,311,312,311,310,311,312,312,311,312,312,311,312,309,313,310,310,310,40.0,-15.0,43.0,-0.1220703050494194,0.0610351525247097,-0.4272460639476776,-0.008056640625,0.00390625,0.9874267578125
1720596307.681,310,311,310,310,310,311,311,311,310,311,311,311,310,311,310,311,311,311,311,311,311,310,311,312,310,311,311,313,312,311,310,309,310,310,310,40.0,-15.0,43.0,-0.0610351525247097,0.0,-0.4272460639476776,-0.0079345703125,0.00390625,0.98779296875
1720596307.701,310,310,310,310,310,311,309,311,311,311,311,310,311,311,311,313,311,312,311,312,311,311,311,312,311,311,311,311,312,311,310,308,308,310,311,40.0,-15.0,43.0,0.0,-0.0610351525247097,-0.4882812201976776,-0.0068359375,0.0032958984375,0.989013671875
1720596307.711,310,310,311,310,311,311,311,311,311,312,311,310,311,312,312,312,311,311,311,311,312,310,311,311,310,312,311,313,311,311,310,324,310,310,311,40.0,-15.0,43.0,-0.0610351525247097,0.0,-0.4882812201976776,-0.0072021484375,0.003173828125,0.9888916015625
1720596307.721,310,311,308,310,310,311,311,311,311,311,311,311,311,311,311,311,311,310,311,311,312,311,311,312,311,312,311,312,312,312,310,310,310,308,310,40.0,-15.0,43.0,-0.1220703050494194,0.0,-0.4882812201976776,-0.008056640625,0.0037841796875,0.9888916015625
1720596307.731,311,311,311,310,310,310,311,311,311,311,310,311,310,311,311,312,310,312,311,311,310,311,311,311,312,311,311,312,313,311,310,308,310,310,311,41.0,-15.0,47.0,-0.1220703050494194,0.0,-0.4882812201976776,-0.008056640625,0.0037841796875,0.98828125
1720596307.741,310,310,310,310,310,311,311,311,311,308,310,310,310,311,311,311,312,310,311,311,311,311,311,311,311,313,312,312,313,312,313,310,310,310,311,41.0,-15.0,47.0,-0.1220703050494194,0.0,-0.4882812201976776,-0.0074462890625,0.003662109375,0.9871826171875
1720596307.751,311,310,310,310,311,311,310,310,312,307,311,311,311,311,310,311,311,311,311,311,312,311,311,311,311,312,313,311,313,312,308,310,311,310,310,41.0,-15.0,47.0,-0.1220703050494194,0.0,-0.4882812201976776,-0.0072021484375,0.0040283203125,0.987548828125
1720596307.761,310,310,311,310,310,311,310,311,311,311,311,311,311,311,311,312,310,313,311,312,311,310,312,311,312,313,311,311,313,311,309,308,310,310,310,41.0,-15.0,47.0,-0.1220703050494194,0.0,-0.4272460639476776,-0.0072021484375,0.0042724609375,0.988525390625
1720596307.791,311,310,311,310,310,311,302,311,311,311,310,311,311,311,311,310,311,311,311,312,311,311,311,310,311,311,312,311,311,312,310,310,310,310,310,41.0,-15.0,47.0,-0.1220703050494194,0.0,-0.4272460639476776,-0.008056640625,0.00439453125,0.9881591796875
1720596307.801,310,310,310,310,310,312,311,311,311,310,310,310,311,311,310,312,312,311,311,311,311,311,311,311,311,312,311,311,311,312,310,310,309,310,310,41.0,-15.0,47.0,-0.1220703050494194,-0.0610351525247097,-0.3662109076976776,-0.007568359375,0.0045166015625,0.9873046875
1720596307.811,311,311,310,311,310,310,310,311,311,311,310,310,310,311,310,310,300,310,311,311,311,312,311,311,310,311,311,310,312,313,310,306,312,310,310,41.0,-15.0,47.0,-0.0610351525247097,0.0,-0.4272460639476776,-0.00732421875,0.0035400390625,0.9869384765625
1720596307.821,310,310,310,310,310,311,310,311,311,311,311,309,311,310,311,311,311,312,311,311,311,311,311,313,312,312,312,313,312,312,310,311,310,310,311,41.0,-15.0,47.0,-0.0610351525247097,0.0,-0.4272460639476776,-0.007568359375,0.0035400390625,0.987548828125
1720596307.831,310,311,311,310,310,310,311,311,311,311,311,311,311,311,311,311,313,311,310,313,311,311,311,311,311,313,312,313,311,311,310,310,309,310,310,41.0,-15.0,47.0,-0.1220703050494194,0.0,-0.4272460639476776,-0.0078125,0.0040283203125,0.9886474609375
1720596307.851,309,310,311,310,311,311,311,311,311,310,311,311,311,311,310,311,310,311,311,312,311,311,312,311,311,311,312,312,312,312,310,310,310,310,310,41.0,-13.0,46.0,-0.0610351525247097,0.0,-0.4272460639476776,-0.007568359375,0.00439453125,0.9879150390625
1720596307.861,309,310,309,310,311,311,310,311,311,302,311,311,311,310,311,311,311,310,310,312,311,311,310,311,312,312,313,311,312,313,310,287,310,310,310,41.0,-13.0,46.0,-0.0610351525247097,0.0,-0.4272460639476776,-0.007568359375,0.0047607421875,0.987548828125
1720596307.881,310,310,310,309,311,311,310,311,311,311,311,311,311,310,311,311,311,311,311,312,311,313,312,312,311,313,311,312,312,312,310,300,310,311,311,41.0,-13.0,46.0,-0.1220703050494194,0.0,-0.4272460639476776,-0.0074462890625,0.003662109375,0.9881591796875
1720596307.891,310,310,310,310,310,311,311,311,311,311,311,311,311,311,312,311,311,311,311,311,311,311,308,310,311,311,311,313,312,313,309,302,310,310,310,41.0,-13.0,46.0,-0.1220703050494194,0.0,-0.4882812201976776,-0.0069580078125,0.004150390625,0.98828125
1720596307.901,311,310,310,310,310,311,310,310,313,311,311,310,311,311,311,311,310,311,310,312,312,311,312,312,311,311,311,311,311,313,310,310,302,310,310,41.0,-13.0,46.0,-0.0610351525247097,-0.0610351525247097,-0.4882812201976776,-0.007080078125,0.0048828125,0.987548828125
1720596307.911,311,310,310,310,310,311,311,310,311,311,311,310,310,310,311,311,310,311,312,311,311,311,310,311,311,313,311,311,311,311,310,309,310,310,310,41.0,-13.0,46.0,-0.0610351525247097,-0.0610351525247097,-0.4272460639476776,-0.00732421875,0.00439453125,0.9864501953125
1720596307.921,310,310,310,310,310,310,311,311,311,312,311,310,301,310,311,311,311,311,311,311,310,311,311,311,310,312,312,311,311,311,308,310,310,310,309,41.0,-13.0,46.0,-0.0610351525247097,0.0,-0.4272460639476776,-0.007568359375,0.00341796875,0.987060546875
1720596307.931,310,310,310,310,310,311,311,312,310,312,311,310,310,311,311,312,310,310,311,311,311,312,311,311,311,312,312,313,313,313,310,308,309,308,310,41.0,-13.0,46.0,-0.0610351525247097,0.0610351525247097,-0.4272460639476776,-0.0076904296875,0.003173828125,0.9884033203125
1720596307.941,310,310,310,310,311,311,311,310,311,311,310,310,311,311,311,312,310,311,311,311,310,311,311,311,312,311,310,311,312,311,308,308,310,310,310,40.0,-14.0,41.0,-0.0610351525247097,0.0610351525247097,-0.4272460639476776,-0.0079345703125,0.003662109375,0.98974609375
1720596307.951,310,311,310,310,310,310,311,311,311,311,311,311,311,311,311,311,311,312,310,310,310,311,312,310,310,312,311,312,313,311,308,310,310,310,309,40.0,-14.0,41.0,-0.0610351525247097,0.0610351525247097,-0.4272460639476776,-0.00830078125,0.004638671875,0.98974609375
1720596307.961,310,310,311,310,310,311,311,310,312,312,311,311,310,311,311,311,311,310,311,312,311,311,313,311,310,313,312,312,311,312,310,310,310,310,310,40.0,-14.0,41.0,-0.0610351525247097,0.0,-0.4272460639476776,-0.0076904296875,0.0052490234375,0.9884033203125
1720596307.971,311,310,311,311,311,311,311,311,311,311,311,310,311,311,310,311,312,311,311,310,311,311,312,310,310,312,312,312,312,310,310,310,310,308,309,40.0,-14.0,41.0,-0.0610351525247097,-0.0610351525247097,-0.4272460639476776,-0.0074462890625,0.0050048828125,0.9881591796875
1720596307.981,310,310,311,311,310,310,311,312,310,312,311,311,311,310,311,311,311,311,310,313,312,311,310,311,311,312,311,313,311,312,310,310,310,300,310,40.0,-14.0,41.0,-0.0610351525247097,-0.0610351525247097,-0.3662109076976776,-0.007568359375,0.004638671875,0.98876953125
1720596307.991,311,310,311,311,311,311,310,311,312,311,311,300,311,311,311,311,311,311,312,311,311,311,311,310,311,311,311,311,311,311,309,310,308,310,310,40.0,-14.0,41.0,-0.0610351525247097,0.0,-0.4272460639476776,-0.0074462890625,0.00390625,0.9888916015625
1720596308.001,310,310,310,311,310,312,310,310,310,311,310,311,310,312,311,311,311,311,311,310,311,311,310,311,310,313,312,311,312,311,310,309,309,310,310,40.0,-14.0,41.0,-0.1220703050494194,0.0,-0.4272460639476776,-0.0076904296875,0.0037841796875,0.98828125
1720596308.011,309,310,310,310,310,310,310,311,310,311,311,310,311,311,310,311,310,312,310,312,312,311,310,311,310,311,311,311,311,311,309,310,311,310,308,40.0,-14.0,41.0,-0.0610351525247097,0.0,-0.4272460639476776,-0.00732421875,0.0040283203125,0.9881591796875
1720596308.021,310,310,310,311,310,312,310,311,311,311,311,310,311,311,311,311,311,311,311,311,310,312,311,310,312,313,313,312,313,311,310,310,309,310,304,40.0,-14.0,41.0,-0.0610351525247097,0.0,-0.4272460639476776,-0.0069580078125,0.00390625,0.9884033203125
1720596308.031,309,310,310,311,310,310,310,311,312,311,310,311,311,311,310,311,311,311,311,311,311,311,310,313,311,311,312,312,312,313,310,310,310,310,310,41.0,-13.0,47.0,-0.0610351525247097,0.0,-0.4272460639476776,-0.0074462890625,0.0037841796875,0.988037109375
1720596308.041,308,310,310,309,310,310,311,312,311,311,311,311,311,311,310,312,311,311,310,313,311,310,311,311,311,311,311,312,311,311,310,310,311,304,310,41.0,-13.0,47.0,-0.0610351525247097,0.0610351525247097,-0.4272460639476776,-0.0081787109375,0.0042724609375,0.9874267578125
1720596308.051,309,310,310,310,311,310,311,310,311,311,311,311,311,311,310,311,311,311,311,310,311,311,311,311,311,311,311,312,311,312,310,299,312,310,308,41.0,-13.0,47.0,-0.1220703050494194,0.0,-0.4272460639476776,-0.0081787109375,0.005126953125,0.9871826171875
1720596308.061,311,310,310,311,311,311,310,310,310,311,311,311,311,311,311,311,311,311,311,311,311,310,311,311,312,311,311,313,311,311,310,313,309,308,310,41.0,-13.0,47.0,-0.1220703050494194,0.0,-0.4272460639476776,-0.0076904296875,0.0052490234375,0.9876708984375
1720596308.071,310,310,310,310,310,311,311,311,311,311,311,311,311,311,310,311,310,311,311,310,302,311,311,311,311,311,312,312,311,311,310,310,312,310,310,41.0,-13.0,47.0,-0.1220703050494194,0.0,-0.4882812201976776,-0.007080078125,0.0042724609375,0.988037109375
1720596308.081,310,310,310,310,311,312,311,311,311,311,311,312,310,311,311,311,310,313,311,311,310,312,311,312,311,312,311,312,311,312,309,309,309,311,310,41.0,-13.0,47.0,-0.1220703050494194,0.0,-0.4882812201976776,-0.0069580078125,0.0032958984375,0.9884033203125
1720596308.091,310,310,310,310,310,311,309,311,311,311,311,310,311,311,311,311,310,311,311,310,310,311,312,311,313,313,311,311,313,313,310,313,309,309,310,41.0,-13.0,47.0,-0.1220703050494194,0.0,-0.4272460639476776,-0.0072021484375,0.00341796875,0.98876953125
1720596308.101,310,310,310,310,310,310,311,311,311,311,311,311,311,310,311,311,310,311,311,311,311,311,302,311,311,310,312,313,312,311,310,310,310,311,309,41.0,-13.0,47.0,-0.1220703050494194,-0.0610351525247097,-0.4272460639476776,-0.0072021484375,0.00390625,0.98876953125
1720596308.112,310,310,310,301,310,311,311,311,310,311,310,311,312,310,311,311,311,311,311,311,310,311,311,310,310,313,311,311,311,313,310,310,309,309,310,41.0,-13.0,47.0,-0.1220703050494194,-0.0610351525247097,-0.3662109076976776,-0.0068359375,0.004150390625,0.9886474609375
1720596308.121,310,310,311,310,311,311,310,310,311,311,311,311,311,311,311,311,311,311,311,311,311,311,311,311,311,311,311,311,312,312,310,324,310,309,310,41.0,-13.0,47.0,-0.1220703050494194,-0.0610351525247097,-0.4272460639476776,-0.0064697265625,0.004638671875,0.9879150390625
1720596308.131,311,328,310,310,310,311,311,313,312,311,311,310,311,311,310,311,310,311,312,311,311,311,311,311,312,312,311,312,313,313,310,310,310,310,310,41.0,-13.0,47.0,-0.1220703050494194,0.0,-0.4882812201976776,-0.0069580078125,0.0050048828125,0.9873046875
1720596308.141,310,310,310,310,310,311,311,312,310,311,312,311,310,311,311,311,311,311,309,311,311,310,311,311,311,311,313,313,311,313,310,310,310,310,310,41.0,-13.0,47.0,-0.1220703050494194,0.0610351525247097,-0.4882812201976776,-0.0074462890625,0.0048828125,0.9869384765625
1720596308.151,310,310,310,311,310,311,310,311,311,310,311,310,311,311,311,311,311,311,312,311,310,311,310,311,310,312,311,312,312,311,310,310,310,311,310,41.0,-13.0,47.0,-0.0610351525247097,0.0610351525247097,-0.4882812201976776,-0.0076904296875,0.0042724609375,0.987060546875
1720596308.161,310,311,311,311,311,311,310,313,311,311,311,311,311,311,310,311,312,311,310,313,311,311,311,313,310,311,312,312,311,310,309,310,310,308,322,41.0,-13.0,47.0,-0.0610351525247097,0.0,-0.4272460639476776,-0.0079345703125,0.0037841796875,0.988037109375
1720596308.171,310,310,310,310,310,311,311,311,312,311,311,311,310,312,311,312,311,311,310,310,311,312,311,311,311,312,311,313,312,311,310,310,310,310,310,41.0,-13.0,47.0,-0.0610351525247097,-0.0610351525247097,-0.4272460639476776,-0.00830078125,0.003662109375,0.9888916015625
1720596308.181,310,310,310,310,310,311,311,311,311,311,310,311,311,311,311,311,311,311,311,311,311,310,311,312,311,313,311,311,312,311,308,308,310,310,310,41.0,-13.0,47.0,-0.0610351525247097,-0.0610351525247097,-0.3662109076976776,-0.0079345703125,0.003662109375,0.98876953125
1720596308.191,310,310,310,310,311,312,312,312,312,311,311,311,310,312,310,311,312,311,311,313,311,312,311,311,311,312,312,312,311,311,310,310,310,310,310,41.0,-13.0,47.0,-0.0610351525247097,-0.0610351525247097,-0.4272460639476776,-0.007080078125,0.003662109375,0.98828125
1720596308.201,309,310,310,310,310,311,310,310,311,311,311,310,311,311,311,311,312,311,311,310,311,311,311,311,311,311,312,313,311,312,310,309,310,310,310,41.0,-13.0,47.0,-0.0610351525247097,0.0,-0.4882812201976776,-0.00732421875,0.0045166015625,0.98828125
1720596308.211,310,310,311,310,310,311,311,311,310,310,310,311,311,311,310,310,311,310,311,311,310,311,313,311,310,312,311,311,312,313,322,310,310,310,310,41.0,-13.0,47.0,-0.0610351525247097,0.0,-0.4882812201976776,-0.0078125,0.0052490234375,0.988525390625
1720596308.221,310,311,310,309,311,310,311,311,310,311,311,311,311,311,310,311,311,312,310,313,311,312,311,311,311,312,311,313,312,311,310,310,310,309,308,41.0,-13.0,47.0,-0.1220703050494194,0.0,-0.4272460639476776,-0.0074462890625,0.0048828125,0.9888916015625
1720596308.231,310,311,310,311,310,311,310,311,311,311,311,310,310,310,311,311,310,311,311,311,311,311,311,312,311,311,313,312,311,312,310,310,309,310,310,41.0,-13.0,47.0,-0.0610351525247097,0.0,-0.4272460639476776,-0.0076904296875,0.00390625,0.9892578125
1720596308.241,310,309,310,311,310,311,311,310,311,310,309,311,311,311,310,312,311,311,311,311,312,310,310,311,311,312,313,310,312,311,310,308,310,310,309,41.0,-13.0,47.0,-0.1220703050494194,0.0,-0.3662109076976776,-0.0078125,0.00341796875,0.9892578125
1720596308.251,310,310,311,310,311,310,310,311,311,311,311,311,311,311,312,311,311,310,310,311,311,311,311,311,311,311,311,311,310,311,310,308,304,309,310,41.0,-13.0,47.0,-0.1220703050494194,0.0,-0.3662109076976776,-0.0074462890625,0.0035400390625,0.9892578125
1720596308.261,310,311,309,310,310,311,310,310,311,311,311,311,310,311,311,311,311,310,311,312,311,311,311,311,311,311,311,313,311,311,308,310,310,300,309,41.0,-13.0,47.0,-0.1220703050494194,-0.0610351525247097,-0.3662109076976776,-0.007568359375,0.003662109375,0.98876953125
1720596308.271,310,310,310,310,311,311,312,310,310,311,310,311,311,311,311,310,311,311,311,310,310,310,311,312,311,311,311,312,311,311,310,309,310,309,310,41.0,-13.0,47.0,-0.1220703050494194,-0.0610351525247097,-0.4272460639476776,-0.0074462890625,0.00341796875,0.9876708984375
1720596308.281,310,311,310,310,311,310,311,310,311,311,311,310,311,311,311,310,313,310,310,311,311,310,311,310,310,311,311,310,310,311,310,308,308,310,310,41.0,-13.0,47.0,-0.1220703050494194,0.0,-0.4272460639476776,-0.007080078125,0.0035400390625,0.9874267578125
1720596308.291,311,310,310,310,311,311,311,311,310,310,311,309,311,311,310,311,311,310,311,311,313,311,311,310,311,313,312,311,310,312,310,309,309,302,310,41.0,-13.0,47.0,-0.0610351525247097,0.0,-0.4272460639476776,-0.0074462890625,0.00390625,0.9874267578125
1720596308.301,310,310,310,311,309,311,311,311,310,311,311,310,310,311,311,311,311,311,311,311,310,313,311,310,311,312,311,311,313,312,310,301,310,310,310,41.0,-13.0,47.0,-0.0610351525247097,0.0,-0.4272460639476776,-0.007568359375,0.0042724609375,0.98779296875
1720596308.311,310,310,310,310,310,310,311,311,311,311,311,310,311,311,310,310,310,311,311,311,311,311,311,311,311,314,312,312,312,311,310,310,310,310,308,41.0,-13.0,47.0,-0.0610351525247097,0.0,-0.4272460639476776,-0.007568359375,0.0048828125,0.987548828125
1720596308.321,310,310,310,310,311,311,311,310,311,311,311,311,311,311,311,312,311,311,310,310,311,311,311,311,312,311,312,312,311,311,310,310,310,310,310,41.0,-13.0,47.0,-0.0610351525247097,0.0,-0.4272460639476776,-0.00830078125,0.0047607421875,0.987060546875
1720596308.331,310,310,311,310,310,313,311,311,310,311,311,311,310,311,311,311,311,311,311,310,311,311,311,311,310,311,313,311,313,311,310,310,308,309,310,40.0,-14.0,42.0,-0.0610351525247097,0.0,-0.4272460639476776,-0.0084228515625,0.004150390625,0.987548828125
1720596308.341,310,311,310,310,310,311,310,311,311,311,311,311,311,311,310,310,311,311,311,310,313,311,311,311,311,313,313,312,312,312,310,310,310,309,308,40.0,-14.0,42.0,-0.0610351525247097,0.0,-0.4272460639476776,-0.0076904296875,0.00439453125,0.98779296875
1720596308.351,310,311,310,311,311,311,310,311,310,311,311,311,311,311,311,311,304,311,310,311,310,312,311,311,311,312,312,311,311,311,310,310,310,312,310,40.0,-14.0,42.0,-0.0610351525247097,0.0,-0.4272460639476776,-0.007080078125,0.00439453125,0.9879150390625
1720596308.381,310,310,310,310,310,312,311,311,311,311,312,311,310,311,311,311,311,313,310,312,311,311,310,311,312,312,313,312,312,311,309,310,310,304,310,40.0,-14.0,42.0,-0.1220703050494194,0.0,-0.4882812201976776,-0.0086669921875,0.0032958984375,0.9879150390625
1720596308.391,310,310,311,310,311,312,311,312,311,311,311,311,311,311,311,310,311,311,311,311,311,310,311,311,312,311,310,313,312,313,309,308,310,310,310,40.0,-14.0,42.0,-0.1220703050494194,0.0,-0.4272460639476776,-0.007568359375,0.0037841796875,0.9879150390625
1720596308.401,310,310,310,311,311,311,311,311,311,311,311,311,310,311,310,311,311,311,310,311,310,310,311,311,310,311,312,311,311,311,310,310,310,308,300,40.0,-14.0,42.0,-0.1220703050494194,0.0,-0.4272460639476776,-0.007080078125,0.0040283203125,0.9879150390625
1720596308.411,310,310,311,310,310,311,311,311,311,311,311,311,311,311,311,312,310,311,311,311,313,311,311,311,310,313,311,311,313,313,310,316,311,310,310,40.0,-14.0,42.0,-0.1220703050494194,0.0,-0.4272460639476776,-0.0074462890625,0.004150390625,0.9874267578125
1720596308.421,308,310,311,312,311,311,311,311,311,311,311,309,311,311,311,310,312,311,310,311,310,311,311,311,311,311,313,312,312,311,309,310,311,310,310,40.0,-14.0,42.0,-0.1831054538488388,0.0,-0.4272460639476776,-0.008056640625,0.0040283203125,0.986572265625
1720596308.431,310,310,310,309,310,311,310,311,311,311,311,311,311,311,311,312,310,311,310,311,311,311,311,310,311,311,312,311,311,311,310,310,310,310,308,40.0,-14.0,42.0,-0.1220703050494194,0.0,-0.4272460639476776,-0.00830078125,0.0037841796875,0.9871826171875
1720596308.441,310,310,310,310,311,311,311,311,311,311,311,310,311,311,310,311,311,311,311,312,311,311,313,312,311,313,311,311,311,311,310,300,310,310,310,41.0,-14.0,49.0,-0.0610351525247097,0.0,-0.4272460639476776,-0.008056640625,0.00390625,0.9884033203125
1720596308.451,311,310,310,310,310,311,311,311,310,311,312,311,311,310,311,311,310,311,311,312,310,311,311,311,311,312,310,313,312,312,310,313,309,310,310,41.0,-14.0,49.0,0.0,0.0,-0.4272460639476776,-0.0078125,0.00390625,0.9886474609375
1720596308.471,310,310,310,310,310,312,310,311,311,312,310,310,310,310,311,311,311,312,310,310,311,311,311,311,311,311,311,311,311,311,310,310,309,309,311,41.0,-14.0,49.0,-0.1220703050494194,0.0,-0.3662109076976776,-0.0072021484375,0.0032958984375,0.9876708984375
1720596308.481,309,310,310,310,311,310,310,311,311,310,311,311,311,310,311,310,310,311,311,312,310,312,311,312,311,310,310,311,312,313,310,309,308,310,310,41.0,-14.0,49.0,-0.1220703050494194,0.0,-0.3662109076976776,-0.007568359375,0.0035400390625,0.9874267578125
1720596308.491,309,311,310,310,310,310,304,312,311,311,310,312,311,311,311,311,313,311,310,311,311,311,310,311,310,312,311,311,312,313,310,310,310,310,309,41.0,-14.0,49.0,-0.1220703050494194,0.0,-0.4272460639476776,-0.0081787109375,0.0037841796875,0.987548828125
1720596308.501,310,310,310,310,310,311,311,311,311,310,311,311,310,311,311,311,311,310,310,311,310,312,311,311,311,313,313,312,311,312,310,310,311,310,310,41.0,-14.0,49.0,-0.1220703050494194,0.0,-0.4272460639476776,-0.0081787109375,0.0037841796875,0.9876708984375
1720596308.511,310,310,311,310,310,311,311,313,312,311,311,311,311,311,311,311,311,311,311,311,311,311,312,310,313,312,311,311,312,311,310,308,308,310,310,41.0,-14.0,49.0,-0.1220703050494194,0.0,-0.4272460639476776,-0.0078125,0.00341796875,0.9876708984375
1720596308.521,310,310,310,310,310,310,311,311,312,311,310,311,311,311,311,311,311,311,311,310,311,311,311,311,311,312,311,312,311,311,310,310,309,309,310,41.0,-14.0,49.0,-0.1220703050494194,0.0,-0.4272460639476776,-0.0078125,0.00341796875,0.9871826171875
1720596308.531,310,310,309,310,310,311,311,310,312,311,311,311,312,311,310,311,311,310,311,311,311,311,311,311,311,312,312,313,311,312,310,310,310,299,310,41.0,-14.0,49.0,-0.0610351525247097,0.0,-0.3662109076976776,-0.007568359375,0.004150390625,0.9864501953125
1720596308.541,310,310,310,311,309,311,310,311,311,310,310,311,311,311,310,311,311,310,311,311,310,311,311,311,319,312,311,311,311,311,310,309,311,310,310,40.0,-12.0,44.0,-0.0610351525247097,0.0,-0.4272460639476776,-0.007568359375,0.004638671875,0.9869384765625
1720596308.561,310,310,309,310,311,312,311,311,310,311,311,311,311,311,311,311,311,310,310,310,311,310,311,311,311,313,311,311,311,313,310,309,315,309,310,40.0,-12.0,44.0,-0.1220703050494194,0.0,-0.4272460639476776,-0.006103515625,0.0030517578125,0.9888916015625
1720596308.571,310,310,311,311,311,311,311,310,312,313,311,311,311,311,311,312,310,311,311,311,311,311,312,311,311,312,312,311,312,313,308,299,308,310,311,40.0,-12.0,44.0,-0.1220703050494194,0.0,-0.4272460639476776,-0.005859375,0.0023193359375,0.9884033203125
1720596308.581,311,311,310,310,310,310,310,311,311,311,311,311,311,310,311,311,311,311,311,313,311,311,311,311,310,313,313,311,311,311,310,310,310,309,308,40.0,-12.0,44.0,-0.1220703050494194,0.0,-0.4272460639476776,-0.0068359375,0.0030517578125,0.9871826171875
1720596308.591,310,310,310,310,310,310,310,310,311,311,311,310,312,312,311,311,311,311,311,311,311,311,311,311,311,312,312,311,312,313,310,310,310,311,310,40.0,-12.0,44.0,-0.1220703050494194,0.0,-0.4272460639476776,-0.008056640625,0.0035400390625,0.9876708984375
1720596308.601,310,310,310,310,311,311,311,310,311,313,311,309,311,311,311,311,311,310,312,311,310,310,311,310,311,311,311,313,313,311,309,310,310,308,310,40.0,-12.0,44.0,-0.1220703050494194,-0.0610351525247097,-0.4272460639476776,-0.00830078125,0.0042724609375,0.9886474609375
1720596308.611,311,310,310,310,310,310,311,311,311,311,310,311,311,310,311,311,311,313,311,312,311,310,310,311,311,311,313,311,312,311,309,309,308,309,311,40.0,-12.0,44.0,-0.1220703050494194,-0.0610351525247097,-0.4272460639476776,-0.008056640625,0.00537109375,0.98876953125
1720596308.621,310,310,311,310,310,311,310,310,311,311,311,311,311,311,311,311,310,311,311,311,311,311,310,311,312,311,313,313,311,311,310,310,308,298,309,40.0,-12.0,44.0,-0.1220703050494194,-0.0610351525247097,-0.3662109076976776,-0.007568359375,0.0057373046875,0.9888916015625
1720596308.631,310,310,310,310,310,311,311,311,311,310,311,311,311,311,311,311,310,311,311,310,311,311,311,311,310,310,311,313,312,311,310,310,310,311,310,40.0,-12.0,44.0,-0.1220703050494194,0.0,-0.3662109076976776,-0.0072021484375,0.0050048828125,0.989013671875
1720596308.641,310,311,311,310,310,311,310,311,311,310,311,311,310,311,311,311,311,311,310,311,310,311,311,310,311,313,312,311,311,313,308,310,310,310,310,39.0,-14.0,48.0,-0.1220703050494194,0.0,-0.4272460639476776,-0.0068359375,0.00390625,0.9881591796875
1720596308.651,310,310,310,310,310,311,310,310,310,311,311,310,310,310,311,310,310,310,310,311,311,311,311,311,311,313,312,311,311,311,310,309,310,343,311,39.0,-14.0,48.0,-0.1220703050494194,0.0,-0.4272460639476776,-0.007080078125,0.00341796875,0.9874267578125
1720596308.661,311,310,310,310,310,310,310,311,310,310,310,311,311,312,311,311,311,312,311,311,310,310,311,311,312,313,311,311,311,311,310,308,310,309,310,39.0,-14.0,48.0,-0.1220703050494194,-0.0610351525247097,-0.4272460639476776,-0.0076904296875,0.0040283203125,0.9873046875
1720596308.691,310,310,310,310,310,311,310,310,311,311,311,310,310,311,311,311,311,310,311,311,311,311,310,311,311,311,310,311,312,312,310,310,308,308,310,39.0,-14.0,48.0,-0.1220703050494194,0.0,-0.4272460639476776,-0.0072021484375,0.0045166015625,0.987548828125
1720596308.701,310,310,310,310,310,311,311,311,311,312,311,311,311,312,311,310,312,312,311,311,311,311,311,311,311,311,311,311,313,312,309,311,310,311,310,39.0,-14.0,48.0,-0.1220703050494194,0.0,-0.4272460639476776,-0.0069580078125,0.004150390625,0.9869384765625
1720596308.711,310,311,310,311,310,310,310,311,310,311,311,311,310,310,311,311,311,310,310,311,311,311,312,311,312,311,311,313,312,310,310,308,309,310,294,39.0,-14.0,48.0,-0.1220703050494194,0.0,-0.4272460639476776,-0.0064697265625,0.0035400390625,0.98681640625
1720596308.721,310,310,311,310,310,311,310,311,311,311,311,310,311,310,311,311,310,311,311,311,311,311,311,312,311,311,311,311,312,312,310,309,310,310,310,39.0,-14.0,48.0,-0.0610351525247097,0.0,-0.4272460639476776,-0.005859375,0.00341796875,0.9874267578125
1720596308.731,310,310,311,310,310,311,311,311,311,311,311,311,311,311,310,310,310,310,311,311,311,311,310,311,311,312,311,311,311,312,309,310,286,309,310,39.0,-14.0,48.0,-0.0610351525247097,0.0610351525247097,-0.4272460639476776,-0.006591796875,0.0035400390625,0.9876708984375
1720596308.741,310,310,310,310,310,311,311,311,311,311,311,310,309,311,310,311,310,311,311,311,311,311,311,311,310,313,311,311,311,311,310,310,310,301,310,40.0,-15.0,46.0,-0.0610351525247097,0.0,-0.4272460639476776,-0.0081787109375,0.0032958984375,0.98779296875
1720596308.751,310,310,310,310,310,311,311,310,311,311,311,310,311,310,311,312,310,311,311,311,310,311,310,310,311,313,311,313,313,311,310,310,309,310,310,40.0,-15.0,46.0,-0.1220703050494194,0.0,-0.4882812201976776,-0.00830078125,0.0035400390625,0.9874267578125
1720596308.761,310,311,310,310,310,311,310,310,310,311,311,311,312,311,310,311,311,311,311,311,312,311,311,311,311,311,312,313,312,311,310,310,309,308,310,40.0,-15.0,46.0,-0.1220703050494194,0.0,-0.4882812201976776,-0.0079345703125,0.0037841796875,0.987060546875
1720596308.791,310,310,310,310,311,312,311,311,310,311,310,311,311,311,310,311,311,311,312,312,310,310,311,311,311,311,311,311,311,311,310,309,310,308,313,40.0,-15.0,46.0,-0.1220703050494194,0.0610351525247097,-0.4272460639476776,-0.008056640625,0.0042724609375,0.9884033203125
1720596308.801,310,308,310,310,311,311,310,312,311,310,310,311,310,310,311,311,311,311,311,311,311,313,311,311,311,311,312,313,310,312,310,310,308,311,310,40.0,-15.0,46.0,-0.1220703050494194,0.0,-0.4272460639476776,-0.0079345703125,0.0045166015625,0.987060546875
1720596308.811,310,311,310,311,308,311,310,311,310,310,311,311,311,311,310,313,310,311,310,311,311,311,311,310,311,312,313,311,311,311,310,310,310,308,310,40.0,-15.0,46.0,-0.1220703050494194,0.0,-0.4272460639476776,-0.0072021484375,0.0048828125,0.986083984375
1720596308.821,308,310,310,310,312,311,311,311,311,310,311,311,311,311,310,310,311,311,312,311,311,311,311,312,311,312,311,312,311,311,310,310,309,310,302,40.0,-15.0,46.0,-0.1220703050494194,0.0,-0.3662109076976776,-0.006591796875,0.0050048828125,0.9864501953125
1720596308.831,311,310,310,310,311,311,311,312,312,311,311,310,311,311,311,311,310,311,312,310,311,311,311,311,311,311,311,312,312,312,310,310,310,310,310,40.0,-15.0,46.0,-0.1220703050494194,0.0,-0.3662109076976776,-0.0069580078125,0.004638671875,0.987060546875
1720596308.841,310,310,310,310,310,312,310,311,312,312,310,311,311,311,311,311,311,312,311,311,311,311,311,311,311,313,311,311,311,311,309,310,310,310,310,42.0,-16.0,46.0,-0.1220703050494194,0.0,-0.3662109076976776,-0.0078125,0.0040283203125,0.9873046875
1720596308.851,310,310,310,309,310,311,311,310,310,311,312,311,311,313,310,311,311,311,311,312,311,311,311,311,311,313,313,311,311,311,310,310,310,310,300,42.0,-16.0,46.0,-0.0610351525247097,0.0,-0.3662109076976776,-0.0079345703125,0.0037841796875,0.9879150390625
1720596308.861,310,310,310,311,310,311,311,310,311,311,313,310,312,312,310,311,311,311,311,311,311,311,310,311,311,311,312,312,312,312,309,309,308,310,310,42.0,-16.0,46.0,-0.0610351525247097,0.0,-0.4272460639476776,-0.0072021484375,0.004150390625,0.9884033203125
1720596308.871,310,310,310,310,310,311,311,311,310,311,311,311,311,311,311,311,311,311,311,311,310,311,311,311,310,313,311,312,313,312,310,304,309,309,310,42.0,-16.0,46.0,-0.0610351525247097,0.0,-0.4272460639476776,-0.0067138671875,0.005126953125,0.988525390625
1720596308.882,310,310,310,310,310,311,311,311,311,311,311,311,310,310,311,311,311,310,311,311,311,311,311,310,311,312,312,311,312,312,310,308,310,310,310,42.0,-16.0,46.0,-0.1220703050494194,0.0,-0.4272460639476776,-0.006591796875,0.0050048828125,0.98779296875
1720596308.891,308,310,309,310,310,311,310,310,310,310,311,311,310,311,311,311,310,310,310,311,311,310,311,311,311,313,313,312,311,310,308,309,310,310,310,42.0,-16.0,46.0,-0.1220703050494194,0.0,-0.4272460639476776,-0.0067138671875,0.0040283203125,0.986572265625
1720596308.901,310,308,310,310,310,311,310,311,311,311,311,310,310,311,310,311,310,311,310,311,310,313,310,311,311,311,311,312,312,311,309,307,309,310,310,42.0,-16.0,46.0,-0.1220703050494194,0.0,-0.4882812201976776,-0.0067138671875,0.0035400390625,0.98681640625
1720596308.911,311,310,311,310,310,311,311,310,311,311,311,312,311,310,310,311,311,311,312,311,311,310,310,311,311,313,311,311,311,312,310,310,308,309,309,42.0,-16.0,46.0,-0.1220703050494194,0.0,-0.4882812201976776,-0.0068359375,0.00390625,0.98779296875
1720596308.922,310,311,311,311,310,311,310,311,311,311,311,311,311,310,311,312,310,310,311,311,311,312,311,311,311,311,311,311,312,313,309,299,310,310,309,42.0,-16.0,46.0,-0.1220703050494194,0.0,-0.4882812201976776,-0.00732421875,0.004150390625,0.988525390625
1720596308.931,310,309,310,310,310,311,311,310,311,311,311,311,311,311,311,311,311,311,310,311,310,311,311,311,311,311,311,311,313,312,310,310,309,310,310,42.0,-16.0,46.0,-0.0610351525247097,0.0,-0.4272460639476776,-0.007568359375,0.0037841796875,0.989013671875
1720596308.941,310,310,310,310,310,311,311,312,311,312,312,311,309,313,310,311,310,312,311,313,311,311,310,311,311,312,313,312,313,311,309,308,308,310,310,40.0,-15.0,42.0,-0.0610351525247097,0.0,-0.4272460639476776,-0.0074462890625,0.00341796875,0.989013671875
1720596308.951,310,310,310,310,311,310,311,311,311,311,311,311,310,311,310,311,311,311,311,311,311,311,313,311,312,312,312,311,311,313,310,310,308,312,310,40.0,-15.0,42.0,-0.0610351525247097,0.0,-0.3662109076976776,-0.0074462890625,0.00341796875,0.9886474609375
1720596308.961,310,310,310,311,311,311,311,311,311,311,311,311,310,311,310,312,311,311,310,311,310,310,311,311,311,312,311,312,311,311,310,310,308,310,310,40.0,-15.0,42.0,-0.1220703050494194,0.0,-0.4272460639476776,-0.0078125,0.0042724609375,0.9874267578125
1720596308.971,310,310,311,310,311,310,310,310,311,312,311,311,311,311,310,311,311,311,310,310,311,311,311,311,310,311,311,311,313,310,310,310,310,310,310,40.0,-15.0,42.0,-0.1220703050494194,0.0,-0.4272460639476776,-0.0074462890625,0.0052490234375,0.986572265625
1720596308.981,310,309,310,310,310,311,310,311,310,311,311,310,310,311,310,311,311,310,311,311,311,311,311,311,311,311,313,311,311,312,310,311,310,310,310,40.0,-15.0,42.0,-0.1220703050494194,0.0,-0.4272460639476776,-0.0068359375,0.005126953125,0.9866943359375
1720596308.991,310,310,310,310,310,310,311,310,310,311,311,311,311,311,311,311,310,310,311,311,311,310,310,312,312,313,310,313,312,312,310,310,308,310,310,40.0,-15.0,42.0,-0.1220703050494194,0.0,-0.4272460639476776,-0.0072021484375,0.0042724609375,0.9874267578125
1720596309.001,310,311,310,309,310,311,311,312,311,311,311,311,310,311,311,311,311,311,311,311,310,311,310,313,310,311,313,313,313,311,310,309,310,310,308,40.0,-15.0,42.0,-0.0610351525247097,0.0,-0.4272460639476776,-0.0076904296875,0.00390625,0.9881591796875
1720596309.011,310,311,310,311,311,310,310,311,311,311,311,311,311,311,311,311,311,311,311,311,310,311,311,311,311,312,311,311,311,311,310,310,309,309,310,40.0,-15.0,42.0,-0.1220703050494194,0.0,-0.4882812201976776,-0.0076904296875,0.004638671875,0.98828125
1720596309.021,310,310,310,310,310,311,312,310,311,312,311,310,310,312,310,311,310,311,311,311,311,313,311,311,311,312,312,312,311,311,310,310,310,311,310,40.0,-15.0,42.0,-0.1220703050494194,0.0,-0.4882812201976776,-0.0078125,0.0047607421875,0.98779296875
1720596309.031,311,310,311,310,310,311,310,311,311,311,311,311,311,311,311,311,311,311,310,311,310,311,312,310,311,311,311,311,312,311,310,310,309,309,310,40.0,-15.0,42.0,-0.1220703050494194,0.0,-0.4272460639476776,-0.0078125,0.0040283203125,0.9876708984375
1720596309.041,310,310,310,310,310,311,310,311,311,311,311,311,313,311,311,311,312,310,311,311,310,311,311,311,311,312,312,311,313,311,310,310,310,309,310,41.0,-14.0,48.0,-0.1220703050494194,0.0,-0.4272460639476776,-0.0072021484375,0.003662109375,0.9884033203125
1720596309.051,310,310,310,310,310,311,310,311,311,311,311,311,311,311,311,310,310,311,311,311,311,311,311,311,311,311,312,313,312,311,310,304,310,310,309,41.0,-14.0,48.0,-0.1220703050494194,0.0610351525247097,-0.4272460639476776,-0.0069580078125,0.0032958984375,0.9892578125
1720596309.111,310,311,310,310,311,311,310,311,312,311,311,311,311,310,311,310,312,310,313,311,311,311,311,311,311,311,311,312,311,312,310,286,308,310,310,41.0,-14.0,48.0,-0.1831054538488388,0.0,-0.4882812201976776,-0.0079345703125,0.0040283203125,0.9871826171875
1720596309.121,310,310,311,309,310,311,311,311,311,311,311,311,311,311,310,311,310,311,311,311,310,311,311,310,310,312,311,312,312,311,310,310,308,310,311,41.0,-14.0,48.0,-0.1220703050494194,0.0610351525247097,-0.4882812201976776,-0.0076904296875,0.00341796875,0.9881591796875
1720596309.141,310,310,310,311,310,311,310,310,311,311,311,311,311,310,311,310,310,310,311,311,310,311,310,311,311,311,311,311,312,311,310,308,309,310,310,41.0,-15.0,45.0,-0.1220703050494194,0.0,-0.4272460639476776,-0.0068359375,0.00439453125,0.988037109375
1720596309.151,310,310,310,310,310,311,311,311,311,311,311,311,310,310,311,311,311,311,311,312,311,311,311,311,311,300,311,311,312,312,310,311,310,310,310,41.0,-15.0,45.0,-0.1220703050494194,0.0,-0.4272460639476776,-0.0074462890625,0.0040283203125,0.9876708984375
1720596309.161,310,310,310,310,311,312,311,311,311,310,311,310,311,311,311,310,310,312,310,312,311,311,311,311,311,312,312,312,311,312,310,310,310,308,310,41.0,-15.0,45.0,-0.1220703050494194,0.0610351525247097,-0.4272460639476776,-0.0076904296875,0.00341796875,0.9873046875
1720596309.171,311,310,310,310,310,311,310,311,311,311,310,311,311,311,311,311,311,311,311,311,311,310,311,311,312,310,313,312,312,313,310,309,309,310,311,41.0,-15.0,45.0,-0.0610351525247097,0.0,-0.4272460639476776,-0.00732421875,0.0035400390625,0.9876708984375
1720596309.181,310,310,310,311,310,310,311,312,312,310,311,311,311,311,312,311,311,311,311,311,312,311,311,311,311,312,313,312,312,312,310,310,310,310,310,41.0,-15.0,45.0,-0.0610351525247097,-0.0610351525247097,-0.4272460639476776,-0.00732421875,0.00341796875,0.98828125
1720596309.191,311,310,310,310,311,312,310,312,310,311,310,311,310,310,311,310,311,310,311,312,311,311,311,311,311,312,311,311,312,312,310,309,308,310,310,41.0,-15.0,45.0,-0.1220703050494194,-0.0610351525247097,-0.4272460639476776,-0.00732421875,0.0032958984375,0.9879150390625
1720596309.201,310,310,310,311,311,311,311,311,311,310,311,312,312,311,310,311,311,311,311,310,311,311,311,311,311,311,312,313,312,311,310,310,310,310,310,41.0,-15.0,45.0,-0.1831054538488388,0.0,-0.4272460639476776,-0.0068359375,0.00341796875,0.9874267578125
1720596309.211,310,310,310,311,310,312,310,311,311,311,310,311,311,310,310,311,312,311,311,312,311,311,312,311,310,311,312,312,312,311,310,310,311,310,319,41.0,-15.0,45.0,-0.1831054538488388,0.0,-0.4882812201976776,-0.0067138671875,0.0032958984375,0.987060546875
1720596309.221,310,310,310,311,310,311,311,312,311,311,311,311,310,311,311,311,311,311,311,311,311,311,312,311,312,312,311,311,311,313,311,308,309,312,310,41.0,-15.0,45.0,-0.1220703050494194,0.0,-0.4272460639476776,-0.0072021484375,0.0032958984375,0.9866943359375
1720596309.231,310,310,310,310,310,311,310,311,311,312,310,311,310,311,310,311,310,311,311,311,310,313,310,310,311,311,310,311,312,311,309,326,308,310,310,41.0,-15.0,45.0,-0.1220703050494194,0.0,-0.4272460639476776,-0.008056640625,0.0037841796875,0.9873046875
1720596309.241,310,310,310,310,310,310,311,311,311,311,311,311,311,311,310,311,310,311,311,310,311,311,311,311,310,311,312,312,312,310,310,310,309,312,310,42.0,-12.0,49.0,-0.1220703050494194,0.0,-0.3662109076976776,-0.00830078125,0.0037841796875,0.98779296875
1720596309.251,310,310,311,310,310,312,309,311,311,311,311,311,311,311,311,310,311,311,311,311,310,311,311,312,311,312,310,310,312,311,310,309,309,310,308,42.0,-12.0,49.0,-0.1220703050494194,0.0,-0.3662109076976776,-0.0076904296875,0.003173828125,0.9876708984375
1720596309.261,310,310,311,310,310,310,311,310,311,311,310,311,311,311,312,311,310,311,311,311,310,311,311,311,311,313,311,312,311,312,309,310,310,309,311,42.0,-12.0,49.0,-0.0610351525247097,0.0,-0.4272460639476776,-0.007568359375,0.00341796875,0.98779296875
1720596309.291,310,310,311,311,311,311,310,311,311,312,311,310,311,311,311,311,310,311,312,311,310,311,311,311,310,311,311,311,312,311,310,313,310,310,310,42.0,-12.0,49.0,-0.1220703050494194,0.0,-0.4272460639476776,-0.0074462890625,0.0042724609375,0.98828125
1720596309.301,310,310,311,310,310,310,311,311,311,311,311,311,311,311,311,311,311,311,311,312,311,298,311,311,313,313,312,312,313,311,310,308,310,310,308,42.0,-12.0,49.0,-0.1220703050494194,0.0,-0.4272460639476776,-0.0079345703125,0.004150390625,0.988525390625
1720596309.311,310,309,310,311,311,310,312,311,311,312,311,311,311,311,311,312,311,310,311,312,311,311,311,311,311,312,313,313,312,311,309,310,310,310,310,42.0,-12.0,49.0,-0.1220703050494194,0.0,-0.4272460639476776,-0.0076904296875,0.0040283203125,0.9879150390625
1720596309.321,310,310,310,311,310,311,310,310,311,311,310,311,311,311,310,311,311,311,312,311,310,311,311,311,312,312,311,311,311,311,309,309,308,308,310,42.0,-12.0,49.0,-0.1220703050494194,0.0,-0.3662109076976776,-0.0072021484375,0.0037841796875,0.9874267578125
1720596309.331,311,310,310,310,310,310,310,311,312,311,310,310,310,311,310,310,311,311,311,311,310,310,311,312,311,311,311,311,312,313,310,308,310,310,312,42.0,-12.0,49.0,-0.1220703050494194,-0.0610351525247097,-0.4272460639476776,-0.0072021484375,0.0035400390625,0.98779296875
1720596309.341,310,310,310,311,310,311,311,311,311,311,310,310,311,311,311,311,311,311,311,311,311,310,310,311,311,313,313,313,311,312,310,310,310,310,310,40.0,-14.0,36.0,-0.1220703050494194,-0.0610351525247097,-0.4272460639476776,-0.0069580078125,0.0032958984375,0.9879150390625
1720596309.351,309,310,310,310,311,311,311,310,311,312,310,310,310,311,311,312,311,310,311,311,312,312,310,311,311,312,310,311,311,311,310,309,310,310,310,40.0,-14.0,36.0,-0.1220703050494194,-0.0610351525247097,-0.4272460639476776,-0.00732421875,0.0032958984375,0.9876708984375
1720596309.361,310,310,310,310,310,311,311,312,311,311,311,310,311,310,311,311,311,312,310,311,311,311,311,310,311,312,311,313,311,312,310,309,310,310,308,40.0,-14.0,36.0,-0.1220703050494194,0.0,-0.4272460639476776,-0.008544921875,0.003173828125,0.987060546875
1720596309.371,310,310,310,310,310,311,311,311,312,311,312,311,310,310,311,311,310,311,311,311,311,311,311,311,311,311,312,313,311,311,310,310,310,308,310,40.0,-14.0,36.0,-0.1220703050494194,0.0,-0.4272460639476776,-0.009033203125,0.0032958984375,0.9866943359375
1720596309.381,310,310,310,311,311,310,311,311,311,310,311,311,311,311,311,311,311,311,310,311,311,311,311,311,311,313,312,312,311,311,310,310,310,309,310,40.0,-14.0,36.0,-0.0610351525247097,0.0610351525247097,-0.4882812201976776,-0.0084228515625,0.0035400390625,0.9866943359375
1720596309.391,310,311,310,310,310,311,311,311,311,311,311,311,311,311,310,311,311,311,311,312,312,311,311,311,311,311,311,311,313,311,310,309,310,307,310,40.0,-14.0,36.0,-0.0610351525247097,0.0610351525247097,-0.4272460639476776,-0.007568359375,0.004150390625,0.9871826171875
1720596309.401,311,310,310,309,309,311,311,312,310,311,311,311,311,310,311,311,311,311,311,311,311,310,311,311,311,311,311,312,311,311,311,309,308,311,310,40.0,-14.0,36.0,-0.0610351525247097,0.0610351525247097,-0.4272460639476776,-0.007568359375,0.004638671875,0.98779296875
1720596309.411,311,311,310,311,310,311,311,311,310,312,311,311,311,310,311,311,311,311,312,311,311,311,311,311,311,312,312,311,312,313,310,308,310,310,310,40.0,-14.0,36.0,-0.1220703050494194,0.0,-0.4272460639476776,-0.0078125,0.0042724609375,0.9876708984375
1720596309.421,310,310,309,310,310,310,311,311,311,311,311,312,311,311,311,312,311,311,311,312,311,311,311,310,310,311,312,313,313,311,309,310,310,315,310,40.0,-14.0,36.0,-0.1220703050494194,0.0,-0.4272460639476776,-0.0078125,0.0042724609375,0.9876708984375
1720596309.431,311,310,311,311,311,311,302,311,311,311,310,311,311,311,310,311,310,311,312,311,311,311,311,312,312,311,311,312,311,312,309,310,309,310,310,40.0,-14.0,36.0,-0.1220703050494194,0.0,-0.4272460639476776,-0.0074462890625,0.00390625,0.9866943359375
1720596309.441,310,310,310,310,310,311,309,311,311,311,311,311,310,312,311,311,310,311,311,311,311,311,311,312,310,311,311,311,312,313,310,302,308,310,311,39.0,-14.0,40.0,-0.1220703050494194,0.0,-0.4882812201976776,-0.0072021484375,0.0037841796875,0.9873046875
1720596309.451,310,311,310,310,310,311,311,312,311,311,311,311,310,311,310,311,311,311,311,313,311,311,311,311,311,312,311,312,311,311,310,310,310,309,301,39.0,-14.0,40.0,-0.1220703050494194,0.0,-0.4272460639476776,-0.0072021484375,0.0037841796875,0.9873046875
1720596309.461,309,310,311,310,310,311,310,311,311,311,311,311,311,311,311,311,310,311,312,311,311,310,311,312,313,313,313,313,311,311,304,310,310,310,310,39.0,-14.0,40.0,-0.1220703050494194,0.0,-0.4272460639476776,-0.0076904296875,0.003662109375,0.9881591796875
1720596309.471,310,310,310,310,311,311,311,311,311,311,311,310,302,311,311,311,311,311,311,310,313,310,311,311,311,310,313,312,312,310,309,310,310,310,310,39.0,-14.0,40.0,-0.0610351525247097,0.0,-0.4272460639476776,-0.0078125,0.0035400390625,0.988525390625
1720596309.481,310,310,310,310,311,310,311,311,312,311,311,311,310,311,310,310,310,311,311,310,311,311,311,311,310,311,312,311,311,311,310,310,310,308,284,39.0,-14.0,40.0,-0.1220703050494194,0.0,-0.4272460639476776,-0.0078125,0.0035400390625,0.988525390625
1720596309.491,310,309,310,310,311,310,311,310,310,310,310,310,310,311,311,311,311,312,310,311,310,311,311,310,311,310,311,311,311,313,274,309,309,308,300,39.0,-14.0,40.0,-0.1220703050494194,0.0,-0.4272460639476776,-0.0074462890625,0.003662109375,0.986572265625
1720596309.501,310,310,310,310,310,311,311,311,311,311,310,311,311,311,311,311,311,311,311,310,311,312,311,311,310,311,311,311,312,311,309,308,310,310,310,39.0,-14.0,40.0,-0.0610351525247097,0.0,-0.4272460639476776,-0.00732421875,0.0032958984375,0.9853515625
1720596309.511,311,310,310,310,310,311,311,311,311,311,311,311,311,311,311,311,311,310,310,311,311,312,311,310,311,312,311,311,312,311,310,310,309,310,308,39.0,-14.0,40.0,-0.0610351525247097,0.0,-0.4272460639476776,-0.00732421875,0.0032958984375,0.9853515625
1720596309.521,310,311,310,311,311,311,310,311,311,311,310,311,311,311,310,311,311,312,311,311,311,311,311,310,310,312,312,312,311,312,310,310,310,312,310,39.0,-14.0,40.0,-0.0610351525247097,0.0,-0.4272460639476776,-0.0078125,0.0037841796875,0.98779296875
1720596309.531,311,310,310,310,310,311,311,310,310,311,312,311,310,311,310,311,311,310,311,311,311,310,312,311,311,311,311,313,312,313,310,310,309,310,310,39.0,-14.0,40.0,-0.1220703050494194,0.0,-0.30517578125,-0.007568359375,0.0040283203125,0.9884033203125
1720596309.541,310,310,310,310,309,311,311,312,311,311,311,311,311,310,310,311,312,310,311,311,311,310,311,311,311,312,313,311,312,311,309,310,309,304,311,40.0,-14.0,40.0,-0.1220703050494194,0.0,-0.3662109076976776,-0.007568359375,0.0040283203125,0.9884033203125
1720596309.551,311,311,310,310,310,312,310,311,311,311,311,310,311,311,312,311,311,311,311,310,311,311,311,311,313,312,311,311,310,312,310,310,309,310,310,40.0,-14.0,40.0,-0.1220703050494194,0.0,-0.3662109076976776,-0.0074462890625,0.00390625,0.9874267578125
1720596309.561,310,310,310,310,311,311,310,310,311,311,311,311,306,311,310,311,311,311,310,310,311,311,311,312,311,311,311,311,312,311,309,310,310,310,310,40.0,-14.0,40.0,-0.1220703050494194,0.0,-0.4882812201976776,-0.007080078125,0.0037841796875,0.9864501953125
1720596309.572,310,310,310,310,310,310,311,310,311,311,311,312,311,308,310,311,311,311,310,311,311,311,312,310,312,312,313,313,311,313,309,309,286,309,310,40.0,-14.0,40.0,-0.1220703050494194,0.0,-0.4882812201976776,-0.007080078125,0.0037841796875,0.9864501953125
1720596309.581,310,310,310,311,310,311,310,312,311,311,311,311,310,311,311,312,310,313,311,311,311,311,312,311,311,311,313,311,311,312,310,310,310,302,310,40.0,-14.0,40.0,-0.1220703050494194,0.0,-0.4882812201976776,-0.0074462890625,0.0045166015625,0.9884033203125
1720596309.591,310,310,311,311,310,311,310,312,311,311,311,311,311,311,311,312,311,312,311,311,311,311,311,311,312,311,311,311,312,312,310,345,310,310,311,40.0,-14.0,40.0,-0.0610351525247097,0.0,-0.4272460639476776,-0.00732421875,0.0035400390625,0.9874267578125
1720596309.601,310,310,310,310,310,310,311,311,311,311,311,311,310,311,311,311,311,311,310,310,311,311,313,312,311,312,313,311,311,311,308,310,310,308,310,40.0,-14.0,40.0,-0.0610351525247097,0.0,-0.4272460639476776,-0.00732421875,0.0035400390625,0.9874267578125
1720596309.611,311,311,310,311,311,312,300,304,310,311,312,311,311,311,311,311,311,311,311,311,311,312,310,311,311,313,311,311,311,313,310,310,310,310,310,40.0,-14.0,40.0,-0.0610351525247097,0.0,-0.4272460639476776,-0.0074462890625,0.002685546875,0.987548828125
1720596309.621,310,310,311,310,310,311,310,311,311,311,311,311,311,312,311,311,311,311,311,311,311,311,311,311,311,313,311,311,313,311,310,308,310,310,310,40.0,-14.0,40.0,-0.1220703050494194,0.0,-0.4272460639476776,-0.00732421875,0.0025634765625,0.98779296875
1720596309.641,310,310,310,311,310,311,311,311,312,311,310,311,311,311,311,310,311,311,311,312,312,311,312,311,310,311,311,313,311,312,310,310,310,309,310,40.0,-15.0,43.0,-0.1220703050494194,0.0,-0.4272460639476776,-0.0078125,0.0042724609375,0.987548828125
1720596309.651,310,310,310,310,311,311,310,311,313,311,312,311,310,311,312,310,310,311,310,310,311,312,312,311,312,311,310,312,311,311,310,310,310,310,310,40.0,-15.0,43.0,-0.1220703050494194,0.0610351525247097,-0.4272460639476776,-0.008056640625,0.0045166015625,0.9873046875
1720596309.661,310,311,310,310,311,311,312,311,311,312,311,311,311,311,311,311,312,311,311,311,311,311,311,311,311,312,311,310,313,312,310,310,310,308,308,40.0,-15.0,43.0,-0.1220703050494194,0.0610351525247097,-0.4272460639476776,-0.008056640625,0.0045166015625,0.9873046875
1720596309.671,311,311,311,310,310,311,310,310,311,311,310,311,311,311,311,311,312,310,311,311,311,311,311,311,311,312,313,311,312,313,310,310,308,310,310,40.0,-15.0,43.0,-0.1220703050494194,0.0610351525247097,-0.4272460639476776,-0.008544921875,0.003662109375,0.98876953125
1720596309.681,310,310,310,310,310,311,310,311,311,311,310,311,311,311,310,312,311,311,311,311,310,311,310,311,311,312,311,313,311,311,308,310,308,309,310,40.0,-15.0,43.0,-0.1220703050494194,0.0,-0.4882812201976776,-0.0086669921875,0.0032958984375,0.989501953125
1720596309.691,309,310,310,311,310,311,311,311,311,311,310,311,311,311,310,311,311,311,311,310,311,311,311,310,311,313,313,313,311,311,310,310,310,310,310,40.0,-15.0,43.0,-0.1220703050494194,0.0610351525247097,-0.4882812201976776,-0.0086669921875,0.0032958984375,0.989501953125
1720596309.701,310,310,310,311,311,311,311,310,311,311,311,311,311,311,311,313,311,311,311,311,311,311,311,311,311,312,312,313,312,312,310,311,309,310,308,40.0,-15.0,43.0,-0.1220703050494194,0.0610351525247097,-0.4882812201976776,-0.00732421875,0.0042724609375,0.987548828125
1720596309.711,310,310,310,311,310,311,311,310,312,311,311,311,312,311,310,311,310,311,311,311,310,310,310,313,312,311,313,312,312,311,316,309,310,310,310,40.0,-15.0,43.0,-0.1220703050494194,0.0610351525247097,-0.4272460639476776,-0.007080078125,0.005126953125,0.98681640625
1720596309.721,310,310,310,310,310,310,311,312,311,311,311,302,310,311,311,311,311,311,310,311,311,311,311,311,312,313,312,311,312,312,308,308,317,309,309,40.0,-15.0,43.0,-0.1220703050494194,0.0,-0.4272460639476776,-0.007080078125,0.005126953125,0.98681640625
1720596309.731,310,311,310,310,310,311,310,310,304,311,311,311,311,310,311,311,311,311,311,312,311,311,311,310,311,311,311,311,311,312,310,310,310,310,309,40.0,-15.0,43.0,-0.1220703050494194,0.0,-0.4272460639476776,-0.006591796875,0.0048828125,0.9884033203125
1720596309.741,310,310,310,310,310,311,311,310,311,311,310,310,310,311,311,311,310,310,311,311,311,311,311,311,311,313,312,313,311,311,310,310,310,310,310,41.0,-15.0,35.0,-0.1220703050494194,0.0,-0.4272460639476776,-0.0068359375,0.0048828125,0.9881591796875
1720596309.751,311,310,310,310,309,311,311,311,312,311,311,312,312,311,310,311,311,311,311,311,311,311,311,312,310,313,311,313,312,311,310,310,310,309,311,41.0,-15.0,35.0,-0.0610351525247097,0.0,-0.4272460639476776,-0.0068359375,0.0048828125,0.9881591796875
1720596309.761,310,310,310,311,310,311,310,311,311,311,310,311,310,311,311,311,310,312,310,311,310,311,311,311,311,312,313,311,311,313,310,310,309,309,310,41.0,-15.0,35.0,-0.0610351525247097,0.0,-0.4272460639476776,-0.007568359375,0.0035400390625,0.9876708984375
1720596309.771,310,310,311,311,310,311,311,310,311,311,312,311,311,311,311,311,311,311,311,311,311,310,310,311,310,313,311,311,312,311,310,310,309,310,310,41.0,-15.0,35.0,-0.0610351525247097,-0.0610351525247097,-0.4272460639476776,-0.0084228515625,0.00341796875,0.98876953125
1720596309.781,311,310,310,310,310,310,311,311,311,312,310,311,311,311,310,311,311,311,310,311,312,311,311,312,311,312,312,311,312,311,310,310,308,313,310,41.0,-15.0,35.0,-0.0610351525247097,0.0,-0.4272460639476776,-0.0084228515625,0.00341796875,0.98876953125
1720596309.791,311,310,310,310,310,311,310,312,311,311,311,311,311,311,311,311,311,311,310,311,312,311,311,311,311,313,312,312,311,311,310,310,309,310,310,41.0,-15.0,35.0,-0.0610351525247097,0.0,-0.4272460639476776,-0.007568359375,0.0029296875,0.9881591796875
1720596309.801,310,311,310,310,310,311,310,311,311,311,310,311,310,311,311,311,311,312,311,308,311,311,311,310,311,312,313,311,311,311,310,310,311,311,310,41.0,-15.0,35.0,-0.0610351525247097,0.0,-0.4272460639476776,-0.007568359375,0.002685546875,0.9879150390625
1720596309.811,310,310,311,311,310,310,310,311,310,311,311,310,312,310,310,312,311,311,311,311,311,311,311,311,311,312,312,311,311,313,310,309,310,309,313,41.0,-15.0,35.0,-0.1220703050494194,0.0610351525247097,-0.4272460639476776,-0.007568359375,0.002685546875,0.9879150390625
1720596309.821,310,310,310,310,310,311,310,310,311,310,310,311,310,310,311,310,310,310,310,310,312,311,311,311,312,312,311,312,311,311,311,309,310,310,310,41.0,-15.0,35.0,-0.1220703050494194,0.0610351525247097,-0.4272460639476776,-0.0076904296875,0.00390625,0.988037109375
1720596309.831,310,310,313,310,310,311,311,310,311,311,311,308,311,311,311,311,311,310,311,311,310,311,311,311,312,311,311,313,313,311,310,308,309,310,310,41.0,-15.0,35.0,-0.1220703050494194,0.0610351525247097,-0.4882812201976776,-0.0078125,0.004150390625,0.989013671875
1720596309.841,310,310,310,310,310,301,310,311,311,311,311,310,310,310,312,311,311,310,311,311,311,311,311,311,311,311,312,312,313,311,309,310,309,309,310,39.0,-15.0,43.0,-0.1220703050494194,0.0,-0.4882812201976776,-0.0078125,0.004150390625,0.989013671875
1720596309.851,310,310,308,310,310,311,310,311,311,311,311,310,310,311,311,311,310,310,311,311,311,311,311,310,302,312,311,312,311,311,308,309,311,309,308,39.0,-15.0,43.0,-0.1220703050494194,0.0,-0.4882812201976776,-0.0081787109375,0.004150390625,0.98779296875
1720596309.861,310,310,304,310,309,311,310,310,311,310,311,311,310,311,310,311,312,311,310,310,312,311,311,311,310,311,311,311,311,310,310,310,310,310,310,39.0,-15.0,43.0,-0.1831054538488388,0.0,-0.4882812201976776,-0.0079345703125,0.0042724609375,0.9873046875
1720596309.871,309,311,310,309,310,311,310,312,311,311,312,310,311,311,311,310,314,311,311,311,311,310,311,311,310,311,312,311,311,313,300,313,310,310,310,39.0,-15.0,43.0,-0.1220703050494194,0.0,-0.4882812201976776,-0.0079345703125,0.0042724609375,0.9873046875
1720596309.881,310,310,310,310,311,311,311,311,311,311,311,311,310,310,311,311,313,311,311,311,313,311,311,312,311,311,313,312,311,310,309,310,310,310,310,39.0,-15.0,43.0,-0.1220703050494194,0.0,-0.4882812201976776,-0.0078125,0.003173828125,0.9866943359375
1720596309.891,310,310,310,310,310,311,310,311,311,311,311,311,311,311,311,311,310,312,312,312,311,311,311,311,311,311,311,312,311,313,310,308,309,310,310,39.0,-15.0,43.0,-0.1220703050494194,0.0610351525247097,-0.4272460639476776,-0.0074462890625,0.0029296875,0.987060546875
1720596309.901,311,310,310,310,310,311,311,311,311,311,311,311,311,311,311,311,312,311,310,313,311,310,311,311,310,311,311,311,311,310,310,310,309,310,310,39.0,-15.0,43.0,-0.1220703050494194,0.0,-0.4272460639476776,-0.0074462890625,0.0029296875,0.987060546875
1720596309.911,310,310,310,310,310,310,310,311,310,310,310,310,310,310,311,310,310,310,311,311,311,311,311,310,311,312,311,313,311,311,310,310,310,304,310,39.0,-15.0,43.0,-0.1220703050494194,0.0,-0.4272460639476776,-0.007568359375,0.003662109375,0.9884033203125
1720596309.931,310,310,310,310,310,310,312,311,311,313,311,311,311,311,311,311,311,312,310,311,310,311,311,311,311,311,312,311,311,310,310,310,310,310,310,39.0,-15.0,43.0,-0.1220703050494194,0.0610351525247097,-0.4272460639476776,-0.007568359375,0.00439453125,0.988525390625
1720596309.941,308,310,310,311,310,311,310,310,311,310,311,310,310,310,310,311,311,312,311,311,311,310,311,311,311,311,311,313,311,311,310,309,310,309,310,40.0,-15.0,40.0,-0.1220703050494194,0.0610351525247097,-0.4272460639476776,-0.0074462890625,0.0047607421875,0.988037109375
1720596309.961,310,311,310,309,308,310,311,311,313,311,310,311,311,310,311,311,312,311,310,311,311,311,311,311,311,311,312,313,310,313,310,309,310,310,310,40.0,-15.0,40.0,-0.0610351525247097,0.0,-0.4272460639476776,-0.0078125,0.0048828125,0.98876953125
1720596309.971,310,310,310,310,311,311,311,310,310,311,311,311,310,310,310,311,311,311,311,311,311,311,311,311,311,311,313,311,311,311,310,308,287,311,309,40.0,-15.0,40.0,-0.0610351525247097,0.0,-0.4272460639476776,-0.0076904296875,0.003662109375,0.988525390625
1720596309.981,310,310,311,311,310,311,310,310,311,311,310,311,311,311,311,311,311,311,312,313,311,311,311,311,310,311,311,311,311,311,310,310,310,308,310,40.0,-15.0,40.0,-0.0610351525247097,-0.0610351525247097,-0.4882812201976776,-0.0072021484375,0.0037841796875,0.9884033203125
1720596309.991,308,311,310,310,311,311,311,311,311,311,310,311,311,312,311,311,311,311,312,311,311,311,311,312,311,311,312,312,311,312,310,310,310,310,304,40.0,-15.0,40.0,-0.1220703050494194,-0.0610351525247097,-0.4272460639476776,-0.0072021484375,0.0037841796875,0.9884033203125
1720596310.001,311,310,310,311,311,311,310,310,311,310,311,311,311,310,311,311,311,312,312,310,311,311,311,311,311,312,312,311,311,311,310,310,310,304,310,40.0,-15.0,40.0,-0.1220703050494194,-0.0610351525247097,-0.4272460639476776,-0.0078125,0.0042724609375,0.988525390625
1720596310.011,310,310,310,309,302,310,311,311,311,311,310,310,311,310,310,312,311,311,311,311,311,310,311,311,311,312,313,313,311,311,309,310,310,310,310,40.0,-15.0,40.0,-0.1220703050494194,0.0,-0.4272460639476776,-0.0079345703125,0.003662109375,0.988525390625
1720596310.021,310,311,310,311,310,310,311,311,310,310,311,310,311,311,310,310,311,312,311,311,311,311,310,311,310,311,312,312,313,313,310,310,310,310,310,40.0,-15.0,40.0,-0.1220703050494194,0.0,-0.4272460639476776,-0.0079345703125,0.003662109375,0.988525390625
1720596310.031,310,310,310,310,310,311,310,310,312,311,311,302,310,310,310,310,311,311,311,310,312,311,311,310,310,310,312,311,312,313,310,310,309,308,308,40.0,-15.0,40.0,-0.1220703050494194,0.0,-0.4272460639476776,-0.00732421875,0.0032958984375,0.9879150390625
1720596310.041,311,310,311,310,310,310,310,311,311,310,310,311,311,312,311,311,310,311,311,311,311,310,311,311,312,313,311,311,312,312,310,310,310,310,310,39.0,-12.0,46.0,-0.1220703050494194,0.0,-0.4272460639476776,-0.006591796875,0.0037841796875,0.98828125
1720596310.051,310,311,310,310,310,310,311,311,311,311,312,311,311,311,310,311,311,312,311,311,311,310,311,310,311,312,312,312,311,310,308,310,310,310,311,39.0,-12.0,46.0,-0.1220703050494194,0.0,-0.4272460639476776,-0.006591796875,0.0037841796875,0.98828125
1720596310.061,310,310,310,310,304,302,311,311,311,311,311,311,312,310,311,311,311,311,311,311,310,311,311,311,313,311,313,312,311,313,310,309,310,310,310,39.0,-12.0,46.0,-0.1220703050494194,0.0,-0.4272460639476776,-0.0076904296875,0.0037841796875,0.9871826171875
1720596310.071,310,310,310,310,310,311,311,311,311,311,311,310,311,311,311,311,311,311,311,311,311,311,311,311,310,312,311,312,313,313,310,310,309,309,310,39.0,-12.0,46.0,-0.1220703050494194,0.0,-0.4272460639476776,-0.00830078125,0.00341796875,0.9874267578125
1720596310.081,310,310,310,310,310,310,310,311,311,311,311,311,311,311,310,311,312,311,311,311,311,311,311,311,311,313,313,312,313,311,311,309,309,309,308,39.0,-12.0,46.0,-0.1220703050494194,0.0,-0.4272460639476776,-0.00830078125,0.00341796875,0.9874267578125
1720596310.091,310,311,310,310,310,311,311,311,311,310,311,311,311,311,310,310,310,310,311,311,311,311,312,311,310,312,311,311,311,311,313,310,310,308,308,39.0,-12.0,46.0,-0.1220703050494194,0.0,-0.4272460639476776,-0.0076904296875,0.0047607421875,0.9879150390625
1720596310.101,311,310,310,310,310,312,310,311,311,311,311,311,311,311,311,312,311,311,310,311,311,311,311,311,311,311,311,313,312,312,310,298,309,310,310,39.0,-12.0,46.0,-0.0610351525247097,0.0,-0.4272460639476776,-0.00732421875,0.0047607421875,0.987060546875
1720596310.111,310,310,310,310,310,311,311,311,311,311,313,310,310,312,310,310,310,311,311,310,311,311,311,311,311,312,313,311,312,312,310,310,299,310,310,39.0,-12.0,46.0,-0.0610351525247097,0.0,-0.4272460639476776,-0.00732421875,0.0047607421875,0.987060546875
1720596310.121,310,309,310,310,311,311,310,311,311,311,311,310,310,311,311,311,311,313,312,311,311,312,312,311,311,312,313,311,312,312,310,310,310,309,310,39.0,-12.0,46.0,-0.0610351525247097,0.0,-0.4272460639476776,-0.0068359375,0.004638671875,0.987548828125
1720596310.131,310,311,310,310,311,311,311,311,311,311,311,310,311,311,310,311,311,311,313,311,310,311,311,312,313,310,311,311,313,312,309,310,310,310,310,39.0,-12.0,46.0,-0.1220703050494194,0.0,-0.4272460639476776,-0.0064697265625,0.0042724609375,0.9874267578125
1720596310.151,310,310,310,311,310,311,311,311,310,311,311,310,310,311,311,311,311,311,311,311,312,310,311,311,312,311,313,311,311,311,309,310,310,310,310,38.0,-13.0,43.0,-0.1220703050494194,0.0,-0.4272460639476776,-0.0067138671875,0.0035400390625,0.987060546875
1720596310.161,311,310,311,310,310,311,310,311,311,311,311,310,311,311,311,310,313,311,311,311,311,311,311,311,300,305,311,311,311,312,310,311,310,310,310,38.0,-13.0,43.0,-0.1220703050494194,0.0,-0.4272460639476776,-0.0079345703125,0.0042724609375,0.9884033203125
1720596310.171,310,311,310,311,310,310,310,311,311,311,311,312,311,310,311,312,311,311,311,311,311,311,311,311,311,311,312,313,311,311,310,310,310,308,310,38.0,-13.0,43.0,-0.1220703050494194,0.0,-0.4882812201976776,-0.0079345703125,0.0042724609375,0.9884033203125
1720596310.181,310,308,311,310,311,311,310,310,311,312,311,310,311,311,311,311,312,311,312,310,311,311,311,311,310,312,313,311,311,313,310,310,310,311,310,38.0,-13.0,43.0,-0.1220703050494194,0.0,-0.4882812201976776,-0.0079345703125,0.0035400390625,0.9892578125
1720596310.191,310,311,310,311,310,312,311,310,311,310,310,311,311,311,311,311,311,311,311,311,311,310,312,310,312,312,312,311,312,311,310,308,308,310,310,38.0,-13.0,43.0,-0.0610351525247097,-0.0610351525247097,-0.4882812201976776,-0.008056640625,0.0037841796875,0.9876708984375
1720596310.201,310,310,311,310,310,311,311,311,311,311,312,311,311,311,310,310,312,311,310,310,311,310,312,312,310,311,311,312,311,310,310,310,310,310,310,38.0,-13.0,43.0,-0.0610351525247097,-0.0610351525247097,-0.4882812201976776,-0.008056640625,0.0037841796875,0.9876708984375
1720596310.211,310,309,310,310,310,311,310,310,311,311,311,311,311,310,311,312,311,311,311,310,311,311,311,310,311,312,313,313,311,312,310,310,310,311,310,38.0,-13.0,43.0,-0.0610351525247097,-0.0610351525247097,-0.4882812201976776,-0.0079345703125,0.0045166015625,0.9874267578125
1720596310.221,310,310,310,310,310,311,311,311,311,311,311,310,311,311,311,311,311,311,311,311,311,311,312,311,311,312,311,311,312,312,309,310,310,310,310,38.0,-13.0,43.0,-0.0610351525247097,0.0,-0.4882812201976776,-0.0072021484375,0.0045166015625,0.987060546875
1720596310.231,310,310,310,310,310,310,312,311,311,311,311,311,311,311,311,311,310,311,311,313,311,312,313,311,311,313,312,312,312,310,310,310,310,306,302,38.0,-13.0,43.0,-0.1220703050494194,0.0,-0.4882812201976776,-0.0072021484375,0.0045166015625,0.987060546875
1720596310.241,310,310,310,310,310,311,310,311,311,311,312,310,311,311,312,311,310,311,311,310,311,311,312,311,312,313,312,313,311,311,310,308,310,310,310,39.0,-16.0,40.0,-0.1220703050494194,0.0,-0.4882812201976776,-0.007080078125,0.0050048828125,0.9866943359375
1720596310.251,310,310,310,311,310,311,310,311,311,310,310,311,311,311,311,311,311,311,311,311,311,313,311,311,311,312,311,312,312,311,309,318,309,310,310,39.0,-16.0,40.0,-0.1220703050494194,0.0,-0.4272460639476776,-0.0068359375,0.0040283203125,0.987060546875
1720596310.261,309,311,311,310,310,310,310,310,311,311,311,311,311,311,311,311,311,311,311,311,312,311,311,311,310,311,311,312,313,311,310,310,310,310,309,39.0,-16.0,40.0,-0.1220703050494194,0.0,-0.4272460639476776,-0.0068359375,0.0040283203125,0.987060546875
1720596310.271,311,310,310,311,311,311,310,311,311,311,311,311,311,310,311,311,310,310,311,311,311,311,311,311,311,312,311,312,311,311,310,308,309,308,310,39.0,-16.0,40.0,-0.1220703050494194,0.0,-0.4272460639476776,-0.007080078125,0.003662109375,0.9873046875
1720596310.281,310,310,311,311,310,311,311,311,311,311,311,310,311,311,311,311,312,311,311,311,311,311,311,311,311,311,311,313,313,312,310,310,309,310,310,39.0,-16.0,40.0,-0.1220703050494194,0.0,-0.4272460639476776,-0.0072021484375,0.00390625,0.9881591796875
1720596310.291,310,310,311,308,310,310,311,310,311,311,311,310,311,311,311,312,311,312,312,312,311,311,313,311,310,311,312,312,311,312,310,310,310,310,310,39.0,-16.0,40.0,-0.1220703050494194,-0.0610351525247097,-0.4272460639476776,-0.0072021484375,0.00390625,0.9881591796875
1720596310.301,310,310,310,310,310,311,311,311,311,312,310,311,311,310,311,311,311,311,311,311,311,310,311,311,311,311,311,311,312,311,311,310,310,311,310,39.0,-16.0,40.0,-0.1220703050494194,-0.0610351525247097,-0.4272460639476776,-0.0079345703125,0.00390625,0.9873046875
1720596310.311,310,311,310,311,310,310,310,311,311,310,311,310,311,311,311,311,311,311,312,312,311,310,311,311,311,311,312,312,313,312,310,310,309,310,310,39.0,-16.0,40.0,-0.1220703050494194,-0.0610351525247097,-0.4272460639476776,-0.0079345703125,0.00390625,0.9869384765625
1720596310.321,310,314,311,311,311,311,311,310,311,311,312,310,311,311,311,312,311,311,311,311,311,311,311,311,311,312,311,313,311,312,309,312,310,310,310,39.0,-16.0,40.0,-0.0610351525247097,-0.0610351525247097,-0.4272460639476776,-0.0079345703125,0.00390625,0.9869384765625
1720596310.341,310,310,311,310,310,311,310,310,311,311,311,311,311,311,311,311,311,311,311,311,310,311,311,311,311,312,310,311,311,311,308,310,310,310,310,42.0,-14.0,41.0,-0.1220703050494194,0.0,-0.4272460639476776,-0.0068359375,0.00439453125,0.9869384765625
1720596310.351,310,310,310,310,311,311,311,311,310,311,311,311,310,310,311,312,311,311,311,310,311,311,311,311,310,312,312,312,312,311,310,308,309,310,311,42.0,-14.0,41.0,-0.1220703050494194,0.0610351525247097,-0.4272460639476776,-0.0068359375,0.00439453125,0.9869384765625
1720596310.361,310,310,310,310,310,311,310,311,311,313,311,310,310,311,311,311,310,311,311,312,311,311,311,311,311,312,312,311,311,312,310,309,310,309,308,42.0,-14.0,41.0,-0.1220703050494194,0.0610351525247097,-0.4272460639476776,-0.0067138671875,0.0037841796875,0.9871826171875
1720596310.371,310,310,310,311,311,311,310,310,311,312,311,311,311,311,311,311,311,312,311,311,310,311,311,311,311,311,311,313,312,312,310,310,310,310,310,42.0,-14.0,41.0,-0.1220703050494194,0.0610351525247097,-0.4882812201976776,-0.0078125,0.0032958984375,0.989501953125
1720596310.381,310,310,310,310,310,311,311,310,311,311,311,311,311,311,311,311,311,311,310,311,311,312,311,311,311,313,312,311,311,311,310,310,311,310,310,42.0,-14.0,41.0,-0.0610351525247097,-0.0610351525247097,-0.4272460639476776,-0.0078125,0.0032958984375,0.989501953125
1720596310.391,310,310,310,311,311,310,310,310,310,311,311,310,311,310,311,311,312,310,311,311,311,313,311,311,310,311,311,312,311,311,310,310,308,304,310,42.0,-14.0,41.0,-0.0610351525247097,-0.0610351525247097,-0.4272460639476776,-0.0081787109375,0.0035400390625,0.98876953125
1720596310.401,310,310,310,310,310,311,310,312,310,311,311,310,311,311,312,311,311,311,311,310,311,311,311,311,311,311,311,311,312,311,310,308,310,310,310,42.0,-14.0,41.0,-0.1220703050494194,-0.0610351525247097,-0.4272460639476776,-0.008544921875,0.0040283203125,0.98681640625
1720596310.411,308,310,310,310,309,310,310,311,311,311,311,310,311,310,311,311,311,311,311,312,311,311,311,311,311,312,312,311,312,311,308,310,310,308,310,42.0,-14.0,41.0,-0.0610351525247097,0.0,-0.3662109076976776,-0.008544921875,0.0040283203125,0.98681640625
1720596310.421,309,309,310,310,310,310,310,311,310,311,310,310,311,310,311,311,311,310,311,311,311,311,311,310,310,311,311,313,311,311,309,315,310,310,310,42.0,-14.0,41.0,-0.0610351525247097,0.0,-0.3662109076976776,-0.0081787109375,0.0042724609375,0.9874267578125
1720596310.431,310,309,310,310,310,310,310,310,311,311,311,310,311,311,311,311,310,311,311,311,310,310,310,311,311,311,311,311,313,312,310,309,310,310,310,42.0,-14.0,41.0,-0.0610351525247097,0.0,-0.3662109076976776,-0.007080078125,0.0037841796875,0.9881591796875
1720596310.441,310,309,310,310,310,310,311,310,311,311,310,311,311,311,310,310,311,311,311,310,311,311,311,311,310,312,311,311,311,311,310,309,310,308,287,42.0,-14.0,41.0,-0.1220703050494194,0.0,-0.4272460639476776,-0.007080078125,0.0037841796875,0.9881591796875
1720596310.451,310,309,311,311,310,311,310,310,311,311,311,310,310,311,310,312,311,311,311,311,310,310,311,311,310,311,311,311,310,311,310,310,310,311,310,41.0,-15.0,42.0,-0.1220703050494194,0.0,-0.4272460639476776,-0.0078125,0.0030517578125,0.98779296875
1720596310.461,310,308,310,311,311,311,311,311,312,312,310,304,311,311,310,311,311,311,310,310,311,310,311,310,310,312,311,312,312,311,309,310,309,311,310,41.0,-15.0,42.0,-0.1220703050494194,0.0,-0.4882812201976776,-0.00927734375,0.0030517578125,0.98779296875
1720596310.471,310,311,309,311,310,311,310,311,311,311,311,312,311,311,310,311,310,311,310,311,312,310,310,311,310,311,311,311,310,312,310,310,310,310,308,41.0,-15.0,42.0,-0.0610351525247097,-0.0610351525247097,-0.4272460639476776,-0.00927734375,0.0030517578125,0.98779296875
1720596310.481,310,310,310,311,309,310,311,311,311,310,311,310,311,311,310,310,311,311,310,310,311,311,310,311,311,311,312,312,311,311,304,310,309,310,308,41.0,-15.0,42.0,-0.0610351525247097,-0.0610351525247097,-0.4272460639476776,-0.0091552734375,0.0037841796875,0.98828125
1720596310.491,310,310,301,310,310,310,311,311,310,310,311,311,311,310,311,311,311,311,311,310,311,311,310,311,311,311,311,311,312,310,308,310,310,309,310,41.0,-15.0,42.0,-0.0610351525247097,-0.0610351525247097,-0.4272460639476776,-0.0078125,0.0047607421875,0.98828125
1720596310.501,310,311,310,310,309,310,311,311,311,311,311,311,310,310,311,311,311,311,310,311,311,311,310,310,310,312,311,311,312,311,310,308,310,308,309,41.0,-15.0,42.0,-0.1831054538488388,-0.0610351525247097,-0.4272460639476776,-0.0078125,0.0047607421875,0.98828125
1720596310.511,310,310,310,310,311,310,311,311,311,311,311,310,311,311,311,311,311,312,311,311,311,310,310,311,311,310,312,313,313,311,313,310,308,310,309,41.0,-15.0,42.0,-0.1831054538488388,-0.0610351525247097,-0.4272460639476776,-0.007568359375,0.005126953125,0.9884033203125
1720596310.521,310,310,310,310,310,311,310,311,310,311,311,310,312,310,310,311,311,311,311,311,310,310,312,311,311,312,312,311,311,312,310,296,310,310,310,41.0,-15.0,42.0,-0.1831054538488388,-0.0610351525247097,-0.4272460639476776,-0.00830078125,0.00439453125,0.9874267578125
1720596310.531,311,311,310,310,309,310,310,311,312,311,311,311,312,311,310,312,311,311,310,311,311,312,310,311,311,311,312,311,311,311,309,310,310,310,311,41.0,-15.0,42.0,-0.1220703050494194,0.0,-0.3662109076976776,-0.00830078125,0.00439453125,0.9874267578125
1720596310.541,311,310,310,310,310,311,310,311,311,311,310,311,310,311,311,311,310,311,311,311,311,312,311,311,311,311,311,311,311,311,310,310,308,311,310,41.0,-15.0,42.0,-0.1220703050494194,0.0,-0.3662109076976776,-0.00830078125,0.0037841796875,0.9884033203125
1720596310.551,309,310,310,311,310,311,311,311,311,310,311,311,311,310,310,310,311,311,311,312,310,312,310,310,311,310,312,312,312,312,310,310,310,310,310,40.0,-14.0,45.0,-0.1220703050494194,0.0610351525247097,-0.4272460639476776,-0.00830078125,0.003173828125,0.9886474609375
1720596310.561,310,310,310,311,310,311,310,310,311,311,311,311,311,311,311,311,311,311,310,311,311,311,310,311,310,313,313,312,311,311,310,310,310,308,310,40.0,-14.0,45.0,-0.0610351525247097,0.0610351525247097,-0.4272460639476776,-0.00830078125,0.003173828125,0.9886474609375
1720596310.571,310,310,310,310,310,311,311,310,311,312,311,311,310,312,311,311,310,312,311,311,311,311,311,312,311,311,312,312,311,311,310,310,310,312,310,40.0,-14.0,45.0,-0.0610351525247097,0.0610351525247097,-0.4272460639476776,-0.00830078125,0.0032958984375,0.9881591796875
1720596310.581,310,310,310,311,309,311,311,311,311,311,311,310,311,311,310,311,310,312,311,310,311,312,311,311,310,311,311,311,311,311,309,310,310,310,310,40.0,-14.0,45.0,-0.0610351525247097,0.0,-0.4272460639476776,-0.0076904296875,0.00390625,0.986083984375
1720596310.601,310,310,310,310,311,311,310,311,311,311,311,311,311,311,311,311,310,310,310,311,311,311,311,311,312,311,311,313,311,311,310,310,310,310,300,40.0,-14.0,45.0,-0.1220703050494194,0.0610351525247097,-0.4882812201976776,-0.0078125,0.003662109375,0.9864501953125
1720596310.611,310,310,310,311,310,310,311,311,311,310,311,311,311,311,311,311,310,311,311,311,310,311,311,311,310,311,311,312,311,311,309,310,310,310,310,40.0,-14.0,45.0,-0.1220703050494194,0.0610351525247097,-0.4882812201976776,-0.0072021484375,0.0037841796875,0.98828125
1720596310.621,310,311,310,310,310,310,311,311,312,311,311,311,311,311,311,311,311,312,311,313,311,312,311,311,310,311,313,312,312,311,311,310,310,310,310,40.0,-14.0,45.0,-0.1220703050494194,0.0,-0.4882812201976776,-0.0072021484375,0.0037841796875,0.98828125
1720596310.631,309,310,310,310,310,310,311,311,310,310,310,311,311,311,311,310,312,310,312,312,311,311,311,311,311,311,311,311,313,312,311,310,304,309,310,40.0,-14.0,45.0,-0.1220703050494194,0.0,-0.4882812201976776,-0.0072021484375,0.004150390625,0.9879150390625
1720596310.641,310,311,311,311,310,310,310,311,312,311,311,310,311,310,311,310,311,311,311,311,311,310,311,311,311,311,311,312,311,311,309,310,310,310,311,38.0,-12.0,45.0,-0.1220703050494194,0.0,-0.4272460639476776,-0.007568359375,0.003662109375,0.9873046875
1720596310.651,310,310,310,310,310,310,311,311,311,311,311,311,312,311,310,310,312,311,312,310,311,311,311,311,311,312,313,312,311,311,310,309,309,304,309,38.0,-12.0,45.0,-0.0610351525247097,0.0,-0.4272460639476776,-0.007568359375,0.003662109375,0.9873046875
1720596310.671,310,310,310,310,310,311,310,311,311,311,310,311,311,311,311,312,311,311,311,310,311,311,312,311,311,313,311,311,311,311,310,310,309,310,310,38.0,-12.0,45.0,-0.0610351525247097,0.0,-0.4272460639476776,-0.0072021484375,0.004638671875,0.988525390625
1720596310.681,310,311,310,309,310,310,311,310,311,312,311,310,310,311,311,311,311,310,311,311,310,311,310,310,311,311,311,311,311,312,310,310,310,310,309,38.0,-12.0,45.0,-0.1220703050494194,0.0,-0.4272460639476776,-0.0072021484375,0.004638671875,0.988525390625
1720596310.691,311,310,310,310,310,311,311,312,310,311,310,311,310,310,311,311,310,312,310,311,311,311,311,310,311,312,311,311,310,311,310,310,309,313,310,38.0,-12.0,45.0,-0.1220703050494194,0.0,-0.4272460639476776,-0.007080078125,0.00390625,0.9879150390625
1720596310.701,310,311,310,310,310,311,310,311,311,311,311,311,310,311,311,311,310,310,311,310,310,311,310,311,311,311,311,312,312,311,310,302,308,310,309,38.0,-12.0,45.0,-0.1220703050494194,0.0,-0.4272460639476776,-0.0081787109375,0.0037841796875,0.9879150390625
1720596310.711,310,310,311,310,310,310,312,311,310,311,310,302,310,311,310,313,311,310,312,310,311,311,310,310,311,311,312,311,312,312,310,310,311,310,310,38.0,-12.0,45.0,-0.1220703050494194,0.0610351525247097,-0.4272460639476776,-0.0081787109375,0.0037841796875,0.9879150390625
1720596310.721,310,310,309,310,311,311,310,311,311,310,311,310,310,311,311,310,311,311,311,311,310,311,312,310,311,311,311,312,310,311,311,310,309,311,310,38.0,-12.0,45.0,-0.1220703050494194,0.0610351525247097,-0.4272460639476776,-0.0076904296875,0.0037841796875,0.9881591796875
1720596310.731,310,309,311,310,311,310,311,311,311,311,311,312,310,310,310,311,311,312,311,310,311,311,311,311,311,312,312,312,311,312,310,308,310,310,309,38.0,-12.0,45.0,-0.0610351525247097,0.0,-0.4272460639476776,-0.0072021484375,0.0047607421875,0.9876708984375
1720596310.741,310,310,310,310,310,311,311,311,311,311,311,310,310,310,311,311,310,311,311,311,301,311,311,311,310,311,311,312,312,311,310,310,310,309,310,38.0,-12.0,45.0,-0.0610351525247097,0.0,-0.4882812201976776,-0.0072021484375,0.0047607421875,0.9876708984375
1720596310.751,311,310,310,310,311,311,311,312,311,311,310,311,310,310,311,311,311,311,311,311,311,312,312,311,311,311,311,312,311,312,311,309,310,315,310,41.0,-15.0,42.0,-0.0610351525247097,0.0,-0.4882812201976776,-0.007568359375,0.0048828125,0.9879150390625
1720596310.761,310,310,310,310,311,311,310,311,311,311,311,311,310,311,311,311,311,311,312,310,311,311,311,310,311,311,311,312,311,311,310,309,310,310,310,41.0,-15.0,42.0,-0.1220703050494194,0.0,-0.4272460639476776,-0.0076904296875,0.00439453125,0.98681640625
1720596310.781,310,309,311,311,311,311,310,311,312,311,311,310,310,311,311,311,311,310,310,311,311,310,312,313,311,311,312,312,311,312,310,310,309,308,309,41.0,-15.0,42.0,-0.1220703050494194,0.0,-0.4272460639476776,-0.0081787109375,0.00390625,0.98681640625
1720596310.791,310,310,310,311,310,311,310,311,310,310,311,311,313,311,310,311,312,311,310,313,311,312,312,311,310,311,310,311,312,311,310,310,309,310,310,41.0,-15.0,42.0,-0.0610351525247097,-0.0610351525247097,-0.4272460639476776,-0.0076904296875,0.0037841796875,0.9874267578125
1720596310.801,309,310,310,310,310,311,311,311,311,311,312,310,310,310,310,313,311,311,311,311,311,311,310,311,311,311,311,311,312,311,308,311,311,310,310,41.0,-15.0,42.0,-0.1220703050494194,0.0,-0.4882812201976776,-0.0076904296875,0.0037841796875,0.9874267578125
1720596310.811,310,310,310,311,311,311,310,312,311,311,311,311,311,311,311,312,311,311,310,312,311,310,310,312,311,311,312,313,311,313,310,310,310,309,309,41.0,-15.0,42.0,-0.1220703050494194,0.0,-0.4882812201976776,-0.0069580078125,0.0037841796875,0.9873046875
1720596310.821,310,310,310,310,310,311,310,312,312,312,311,304,311,310,311,311,310,311,311,310,311,312,311,311,310,311,312,311,311,311,310,308,311,310,310,41.0,-15.0,42.0,-0.1220703050494194,0.0,-0.4882812201976776,-0.0076904296875,0.0032958984375,0.9869384765625
1720596310.831,309,311,310,310,310,311,311,310,311,311,310,311,311,311,310,311,311,311,311,311,311,311,311,311,311,312,312,311,313,313,310,310,310,310,310,41.0,-15.0,42.0,-0.1220703050494194,0.0,-0.4272460639476776,-0.0076904296875,0.0032958984375,0.9869384765625
1720596310.841,310,310,310,311,310,312,310,311,311,311,312,311,311,310,300,311,310,311,311,311,311,311,311,313,311,313,311,312,312,313,308,299,310,310,310,41.0,-15.0,42.0,-0.1220703050494194,0.0,-0.4272460639476776,-0.0076904296875,0.00341796875,0.9879150390625
1720596310.851,310,310,310,311,310,311,311,311,312,311,311,311,312,311,310,312,311,311,312,311,311,310,311,311,311,311,311,312,312,311,310,315,310,310,311,38.0,-15.0,44.0,-0.0610351525247097,0.0,-0.4272460639476776,-0.0068359375,0.00341796875,0.988525390625
1720596310.861,310,311,311,311,308,310,310,311,311,311,310,311,310,311,310,311,311,310,311,311,311,311,311,310,312,312,311,311,311,311,310,308,308,318,310,38.0,-15.0,44.0,-0.1220703050494194,0.0,-0.4272460639476776,-0.0068359375,0.00341796875,0.988525390625
1720596310.881,310,310,310,310,310,311,310,310,311,311,310,308,311,310,311,311,310,311,311,311,310,311,311,311,311,311,311,313,313,312,309,309,308,310,309,38.0,-15.0,44.0,-0.1831054538488388,0.0,-0.4882812201976776,-0.0076904296875,0.00341796875,0.9874267578125
1720596310.891,310,310,311,310,310,310,311,311,311,311,311,311,310,311,310,311,311,311,311,311,311,311,310,311,311,311,312,311,311,312,309,310,308,310,310,38.0,-15.0,44.0,-0.1831054538488388,0.0,-0.4882812201976776,-0.0076904296875,0.00341796875,0.9874267578125
1720596310.901,310,310,310,310,310,311,310,310,311,311,310,310,310,311,311,311,311,311,311,310,311,311,311,312,311,311,311,311,310,312,310,310,310,315,310,38.0,-15.0,44.0,-0.1831054538488388,0.0,-0.4272460639476776,-0.00732421875,0.003662109375,0.98779296875
1720596310.911,310,310,310,310,311,311,302,310,311,310,310,311,313,311,311,311,311,312,311,311,311,311,311,311,310,313,312,312,311,310,309,310,310,310,310,38.0,-15.0,44.0,-0.1220703050494194,0.0,-0.4272460639476776,-0.0081787109375,0.003662109375,0.98876953125
1720596310.921,311,310,310,311,310,310,311,311,311,311,311,311,311,311,310,311,311,312,310,311,311,311,311,313,310,313,311,313,311,312,310,309,309,310,309,38.0,-15.0,44.0,-0.1220703050494194,0.0,-0.4272460639476776,-0.0081787109375,0.003662109375,0.98876953125
1720596310.931,310,310,308,310,310,311,310,311,310,310,310,311,311,311,310,312,311,311,311,311,311,312,312,311,311,311,311,312,311,311,310,310,310,310,309,38.0,-15.0,44.0,-0.1220703050494194,0.0,-0.4272460639476776,-0.0078125,0.0035400390625,0.98974609375
1720596310.941,310,310,310,310,310,311,310,311,311,311,311,310,311,311,311,311,310,311,311,311,311,312,311,311,311,311,311,312,311,313,310,318,310,310,310,41.0,-15.0,46.0,-0.1220703050494194,0.0610351525247097,-0.4272460639476776,-0.0074462890625,0.003173828125,0.989013671875
1720596310.951,310,310,311,311,311,310,311,311,311,311,311,311,311,311,311,311,311,311,311,311,311,311,311,311,310,313,312,311,311,311,310,310,308,308,310,41.0,-15.0,46.0,-0.1220703050494194,0.0610351525247097,-0.4882812201976776,-0.0072021484375,0.0029296875,0.98779296875
1720596310.961,310,310,311,310,311,312,310,310,311,311,310,310,311,311,310,311,311,311,310,311,311,312,311,311,311,311,312,313,310,313,310,310,309,308,309,41.0,-15.0,46.0,-0.0610351525247097,0.0610351525247097,-0.4882812201976776,-0.0074462890625,0.0032958984375,0.9876708984375
1720596310.971,310,310,310,311,310,311,310,310,311,312,310,310,310,310,312,311,311,311,311,311,311,311,311,311,310,311,310,312,312,311,310,304,308,310,310,41.0,-15.0,46.0,-0.0610351525247097,0.0,-0.54931640625,-0.0079345703125,0.0037841796875,0.98876953125
1720596310.991,311,310,310,311,310,311,310,311,313,311,311,310,311,311,311,311,311,310,311,311,310,311,311,311,311,311,311,313,311,312,311,310,308,341,310,41.0,-15.0,46.0,-0.1220703050494194,0.0,-0.4272460639476776,-0.0076904296875,0.0040283203125,0.988037109375
1720596311.001,310,310,310,310,311,311,311,311,312,311,311,311,311,311,311,311,311,311,311,311,310,311,311,311,311,313,312,313,313,311,310,310,310,310,310,41.0,-15.0,46.0,-0.1220703050494194,0.0,-0.4882812201976776,-0.00732421875,0.0040283203125,0.9876708984375
1720596311.011,310,310,311,310,311,310,313,311,312,311,311,312,311,311,311,310,312,311,312,311,312,310,311,311,311,313,313,313,312,312,310,310,310,304,311,41.0,-15.0,46.0,-0.1220703050494194,0.0,-0.4882812201976776,-0.00732421875,0.0032958984375,0.98779296875
1720596311.021,310,311,310,310,310,311,310,311,310,311,311,310,310,311,311,311,311,312,311,311,311,311,311,311,311,311,311,312,311,313,310,310,310,310,310,41.0,-15.0,46.0,-0.1220703050494194,0.0,-0.4882812201976776,-0.0078125,0.003173828125,0.98828125
1720596311.031,310,310,310,310,311,312,310,311,311,311,310,311,311,311,311,310,312,311,311,311,311,312,311,311,311,311,311,311,312,312,310,310,310,310,310,41.0,-15.0,46.0,-0.1220703050494194,0.0,-0.4272460639476776,-0.008544921875,0.0035400390625,0.988037109375
1720596311.041,310,311,311,310,310,310,311,311,312,312,312,311,312,311,310,311,312,312,311,313,311,311,312,311,310,312,312,312,311,314,310,310,310,310,308,41.0,-15.0,46.0,-0.0610351525247097,0.0,-0.4272460639476776,-0.0086669921875,0.00390625,0.9873046875
1720596311.051,310,310,311,311,310,311,311,311,311,311,311,311,311,311,312,310,311,312,311,311,312,310,311,311,311,312,311,312,313,313,298,310,310,310,310,39.0,-12.0,45.0,-0.1220703050494194,0.0,-0.4272460639476776,-0.0081787109375,0.004150390625,0.987060546875
1720596311.061,310,311,311,311,310,311,311,313,312,311,312,311,311,310,312,312,311,311,311,311,311,312,311,311,311,312,311,313,311,313,310,310,309,310,310,39.0,-12.0,45.0,-0.1220703050494194,0.0,-0.4272460639476776,-0.0078125,0.004150390625,0.9874267578125
1720596311.071,310,311,310,310,310,310,312,311,312,312,312,313,311,311,311,311,311,310,311,312,311,311,310,311,311,312,313,311,312,311,309,309,310,310,310,39.0,-12.0,45.0,-0.1220703050494194,0.0,-0.4272460639476776,-0.007568359375,0.00341796875,0.9881591796875
1720596311.081,310,308,310,310,310,311,311,311,311,310,311,310,311,310,312,311,311,311,310,310,312,312,311,311,313,313,313,311,311,313,310,311,310,311,310,39.0,-12.0,45.0,-0.1220703050494194,0.0,-0.4272460639476776,-0.0074462890625,0.0032958984375,0.9884033203125
1720596311.091,310,311,311,310,311,311,310,311,311,311,311,311,311,312,311,313,310,311,312,311,311,311,311,311,311,311,311,311,313,311,310,311,310,310,310,39.0,-12.0,45.0,-0.1220703050494194,0.0,-0.4882812201976776,-0.0074462890625,0.0032958984375,0.988037109375
1720596311.101,310,310,310,310,310,311,311,311,310,311,311,311,311,311,310,310,311,311,311,311,311,311,311,311,311,311,312,312,311,308,310,309,286,310,308,39.0,-12.0,45.0,-0.1220703050494194,0.0,-0.4882812201976776,-0.0076904296875,0.0035400390625,0.987060546875
1720596311.111,310,310,310,310,310,311,311,311,311,312,311,311,309,311,311,312,311,311,311,311,311,311,311,311,311,310,313,313,312,311,309,308,310,311,310,39.0,-12.0,45.0,-0.1220703050494194,0.0,-0.4272460639476776,-0.0079345703125,0.00390625,0.9873046875
1720596311.121,310,310,310,311,310,311,311,312,311,311,311,311,312,311,311,313,310,312,311,310,310,310,310,311,311,312,312,312,311,311,310,310,310,310,310,39.0,-12.0,45.0,-0.1220703050494194,0.0,-0.4272460639476776,-0.00830078125,0.00341796875,0.9881591796875
1720596311.131,310,311,310,310,311,310,311,311,310,312,311,310,311,312,311,310,311,314,310,312,312,311,310,311,311,312,311,312,313,312,310,298,310,310,310,39.0,-12.0,45.0,-0.1220703050494194,0.0,-0.4272460639476776,-0.008544921875,0.0030517578125,0.98828125
1720596311.141,309,309,311,310,311,311,311,311,311,311,311,310,311,312,311,311,311,311,310,311,312,311,311,311,312,311,312,311,313,312,310,310,307,310,310,39.0,-12.0,45.0,-0.0610351525247097,0.0,-0.4272460639476776,-0.008056640625,0.0035400390625,0.98779296875
1720596311.151,310,310,310,311,310,311,311,311,312,311,311,310,311,311,310,311,311,312,310,312,310,310,312,311,311,312,311,312,312,311,310,309,308,310,310,41.0,-12.0,44.0,-0.1220703050494194,0.0,-0.4272460639476776,-0.00732421875,0.00439453125,0.9874267578125
1720596311.161,310,310,310,310,310,311,311,311,311,311,311,311,312,311,311,311,311,311,310,312,312,311,311,311,310,311,311,311,313,311,310,310,309,310,310,41.0,-12.0,44.0,-0.1220703050494194,-0.0610351525247097,-0.3662109076976776,-0.0069580078125,0.0050048828125,0.9873046875
1720596311.191,310,310,311,310,310,311,311,311,312,311,312,311,311,311,310,310,311,311,311,310,311,311,311,311,311,311,311,312,311,313,310,310,310,310,310,41.0,-12.0,44.0,-0.0610351525247097,0.0,-0.4272460639476776,-0.0079345703125,0.0040283203125,0.987548828125
1720596311.201,310,310,311,311,311,311,310,310,311,311,311,310,312,311,311,311,310,311,311,312,311,311,312,311,310,312,312,311,313,313,310,310,309,314,310,41.0,-12.0,44.0,-0.0610351525247097,0.0,-0.4272460639476776,-0.0074462890625,0.0040283203125,0.9873046875
1720596311.211,310,310,310,310,310,311,311,311,311,311,311,311,311,310,311,311,311,311,311,311,311,311,312,311,311,311,311,311,311,313,309,310,310,308,310,41.0,-12.0,44.0,-0.1220703050494194,0.0,-0.4272460639476776,-0.007080078125,0.0042724609375,0.987060546875
1720596311.221,310,310,310,310,309,310,311,311,311,311,311,311,311,311,310,311,311,312,311,311,311,312,311,310,310,312,312,313,311,311,310,310,308,310,312,41.0,-12.0,44.0,-0.1220703050494194,0.0610351525247097,-0.4272460639476776,-0.0072021484375,0.0037841796875,0.987548828125
1720596311.231,310,310,310,311,310,312,310,311,311,311,312,311,311,311,311,311,311,311,311,311,311,311,312,311,311,313,311,313,311,312,310,310,310,309,308,41.0,-12.0,44.0,-0.1220703050494194,0.0,-0.3662109076976776,-0.007080078125,0.003173828125,0.988037109375
1720596311.242,310,310,310,310,310,310,311,311,311,311,310,311,311,310,310,311,311,311,311,311,311,311,311,311,311,312,311,312,311,311,312,308,310,310,310,41.0,-12.0,44.0,-0.1220703050494194,0.0,-0.4272460639476776,-0.00732421875,0.003173828125,0.9879150390625
1720596311.251,310,311,310,310,310,311,311,310,311,311,312,311,311,311,311,310,312,310,311,312,311,311,310,311,310,311,311,311,311,310,311,310,310,287,311,40.0,-13.0,45.0,-0.1220703050494194,0.0610351525247097,-0.4272460639476776,-0.007568359375,0.0037841796875,0.9873046875
1720596311.261,309,310,310,311,311,310,310,311,313,311,311,310,311,311,311,311,310,311,311,311,311,311,312,313,312,313,311,311,311,311,310,310,310,310,310,40.0,-13.0,45.0,-0.1220703050494194,0.0610351525247097,-0.4882812201976776,-0.0074462890625,0.00439453125,0.9873046875
1720596311.271,311,310,311,310,311,311,311,310,311,311,311,311,311,310,312,311,311,310,312,310,310,311,310,311,311,313,311,313,313,312,309,310,309,310,310,40.0,-13.0,45.0,-0.0610351525247097,0.0610351525247097,-0.4272460639476776,-0.007568359375,0.0040283203125,0.98779296875
1720596311.291,310,310,310,311,310,311,310,311,311,310,311,310,310,310,311,312,310,310,310,311,311,311,311,311,310,312,311,311,311,310,309,309,310,310,322,40.0,-13.0,45.0,-0.0610351525247097,0.0,-0.4272460639476776,-0.0069580078125,0.00390625,0.98876953125
1720596311.301,310,311,310,310,310,310,311,311,311,311,311,310,311,311,311,311,310,311,311,311,310,311,311,311,311,312,310,312,311,311,310,310,309,308,310,40.0,-13.0,45.0,-0.0610351525247097,0.0,-0.4272460639476776,-0.007080078125,0.0040283203125,0.987548828125
1720596311.311,310,311,310,310,310,310,311,311,312,311,311,311,311,311,310,310,312,311,311,310,310,311,311,311,311,311,313,313,311,311,310,310,309,311,309,40.0,-13.0,45.0,-0.0610351525247097,0.0,-0.4882812201976776,-0.0081787109375,0.0045166015625,0.9866943359375
1720596311.321,310,310,310,310,310,310,312,311,311,311,311,311,311,311,312,311,310,311,311,312,311,310,311,311,312,311,311,311,312,312,309,310,310,310,310,40.0,-13.0,45.0,-0.0610351525247097,0.0,-0.4882812201976776,-0.0086669921875,0.004638671875,0.987548828125
1720596311.331,309,310,309,310,311,311,311,310,310,311,311,310,311,311,310,311,311,311,311,311,310,310,313,311,310,312,311,312,311,311,310,310,308,310,310,40.0,-13.0,45.0,-0.1220703050494194,0.0,-0.4882812201976776,-0.0079345703125,0.00439453125,0.9888916015625
1720596311.341,310,309,310,310,311,311,311,310,311,310,311,311,311,310,312,311,310,311,310,313,311,311,311,311,310,312,312,312,311,311,308,309,308,308,310,40.0,-13.0,45.0,-0.1220703050494194,0.0,-0.4272460639476776,-0.0072021484375,0.0042724609375,0.989501953125
1720596311.351,310,310,310,311,310,311,311,311,310,311,311,311,311,311,311,311,311,310,310,310,311,311,311,310,310,311,311,312,310,311,310,310,310,309,310,39.0,-14.0,45.0,-0.1220703050494194,0.0,-0.3662109076976776,-0.00732421875,0.0037841796875,0.9896240234375
1720596311.361,310,309,310,310,310,310,310,310,311,310,310,311,310,311,310,311,311,311,311,311,311,311,310,310,311,312,311,311,313,311,310,310,310,311,310,39.0,-14.0,45.0,-0.1220703050494194,0.0,-0.4272460639476776,-0.0081787109375,0.0037841796875,0.9891357421875
1720596311.371,310,310,310,308,310,311,311,311,312,311,311,311,311,311,311,311,311,311,311,312,311,311,311,311,310,311,312,311,311,311,310,310,310,309,310,39.0,-14.0,45.0,-0.1220703050494194,0.0,-0.4882812201976776,-0.00830078125,0.004150390625,0.989013671875
1720596311.391,310,310,310,310,310,311,311,311,311,311,310,310,311,311,311,309,311,311,311,311,311,310,311,312,311,311,312,311,311,311,295,310,308,310,310,39.0,-14.0,45.0,-0.0610351525247097,0.0,-0.4272460639476776,-0.007568359375,0.0030517578125,0.988525390625
1720596311.401,310,311,310,310,310,310,311,310,311,311,310,311,310,310,310,311,311,311,311,312,311,310,312,311,311,312,311,311,312,311,310,310,310,311,309,39.0,-14.0,45.0,-0.0610351525247097,0.0,-0.4272460639476776,-0.0076904296875,0.002685546875,0.98828125
1720596311.411,310,311,310,310,310,312,311,310,311,311,311,312,310,311,312,311,310,310,310,311,311,311,311,311,311,311,311,311,312,313,310,310,309,310,310,39.0,-14.0,45.0,-0.1220703050494194,-0.0610351525247097,-0.3662109076976776,-0.0078125,0.0029296875,0.987548828125
1720596311.421,310,310,310,310,310,311,310,310,311,311,311,311,310,311,310,311,310,311,311,311,311,310,311,310,310,312,310,312,311,311,310,308,308,309,310,39.0,-14.0,45.0,-0.1220703050494194,-0.0610351525247097,-0.3662109076976776,-0.008056640625,0.00341796875,0.9874267578125
1720596311.431,310,310,310,310,310,310,311,311,311,311,311,311,311,312,310,311,311,310,311,311,311,311,311,310,310,312,311,313,311,310,310,310,310,308,310,39.0,-14.0,45.0,-0.1220703050494194,0.0,-0.4272460639476776,-0.008056640625,0.00390625,0.9873046875
1720596311.441,310,309,310,310,310,310,310,311,311,311,311,311,311,311,311,310,311,311,310,311,310,311,311,311,311,313,312,311,312,311,310,310,310,311,310,39.0,-14.0,45.0,-0.1220703050494194,0.0,-0.4272460639476776,-0.007568359375,0.004638671875,0.9866943359375
1720596311.451,310,310,311,311,310,311,310,311,311,312,310,310,310,311,311,311,311,311,311,310,311,311,311,310,311,311,312,311,311,312,310,324,310,310,310,41.0,-12.0,47.0,-0.1220703050494194,0.0,-0.4272460639476776,-0.0076904296875,0.004638671875,0.98681640625
1720596311.461,310,310,310,310,310,310,311,311,311,311,311,311,310,311,311,311,310,311,310,313,311,311,311,311,310,311,311,311,311,311,311,310,310,309,285,41.0,-12.0,47.0,-0.1220703050494194,0.0610351525247097,-0.4272460639476776,-0.0078125,0.0040283203125,0.9871826171875
1720596311.471,310,310,310,310,310,311,310,310,311,311,310,310,311,311,310,311,311,311,311,312,310,300,311,311,311,313,311,312,312,313,308,313,310,310,310,41.0,-12.0,47.0,-0.0610351525247097,0.0610351525247097,-0.4272460639476776,-0.007568359375,0.0035400390625,0.986572265625
1720596311.481,311,310,310,310,311,311,310,311,311,311,311,310,311,311,311,311,311,313,311,311,311,311,311,311,311,312,311,311,311,312,309,310,309,310,310,41.0,-12.0,47.0,-0.1220703050494194,0.0,-0.4272460639476776,-0.007568359375,0.0035400390625,0.98681640625
1720596311.491,310,310,311,310,310,311,311,310,311,311,311,310,311,311,310,311,311,311,311,309,312,311,312,311,310,312,311,312,311,311,310,310,310,309,311,41.0,-12.0,47.0,-0.1220703050494194,-0.0610351525247097,-0.4272460639476776,-0.0078125,0.003662109375,0.98779296875
1720596311.511,309,310,310,310,310,311,311,310,311,311,312,310,310,310,311,312,310,311,311,311,311,311,312,311,311,313,311,311,313,311,309,310,310,310,310,41.0,-12.0,47.0,-0.0610351525247097,0.0,-0.4272460639476776,-0.0074462890625,0.00439453125,0.9886474609375
1720596311.521,310,310,310,310,310,311,311,311,311,311,311,311,311,311,311,311,311,311,312,311,311,310,311,311,311,311,311,313,312,312,309,308,309,310,310,41.0,-12.0,47.0,-0.0610351525247097,0.0610351525247097,-0.4272460639476776,-0.0072021484375,0.00439453125,0.988037109375
1720596311.531,310,310,310,310,310,311,311,310,310,311,311,310,310,311,311,312,313,313,312,311,311,311,311,311,310,313,310,311,311,311,309,308,310,310,310,41.0,-12.0,47.0,-0.0610351525247097,0.0,-0.4272460639476776,-0.007080078125,0.0040283203125,0.9881591796875
1720596311.541,309,310,310,310,310,311,310,311,311,310,311,311,311,311,311,310,311,311,311,311,311,311,312,311,311,312,311,312,311,313,310,310,308,310,310,41.0,-12.0,47.0,-0.0610351525247097,0.0,-0.4272460639476776,-0.007080078125,0.0032958984375,0.9884033203125
1720596311.551,310,310,311,310,310,310,311,311,310,312,311,311,311,311,310,311,311,310,311,310,310,311,311,310,311,311,311,311,311,311,310,310,310,310,309,40.0,-13.0,41.0,-0.1220703050494194,0.0,-0.4882812201976776,-0.007080078125,0.0032958984375,0.9879150390625
1720596311.561,310,310,310,310,310,311,310,311,310,311,310,310,310,310,311,311,311,310,311,313,311,311,311,311,312,313,312,313,311,311,310,310,310,308,310,40.0,-13.0,41.0,-0.1220703050494194,-0.0610351525247097,-0.4882812201976776,-0.00732421875,0.0032958984375,0.9879150390625
1720596311.571,311,310,311,311,310,311,310,311,311,311,311,311,311,311,310,312,312,310,312,304,311,311,311,310,311,311,313,312,311,311,310,310,311,310,310,40.0,-13.0,41.0,-0.1831054538488388,-0.0610351525247097,-0.4882812201976776,-0.00732421875,0.003173828125,0.988525390625
1720596311.582,310,311,310,310,311,310,311,311,311,312,311,311,311,311,311,312,310,311,310,311,311,311,311,311,311,312,311,312,311,312,310,310,310,310,311,40.0,-13.0,41.0,-0.1831054538488388,0.0,-0.4882812201976776,-0.0072021484375,0.0037841796875,0.98876953125
1720596311.591,310,310,310,311,310,311,310,311,311,311,312,311,304,310,311,311,311,311,310,311,311,311,311,311,313,313,312,311,311,313,309,310,304,310,311,40.0,-13.0,41.0,-0.1220703050494194,0.0,-0.4272460639476776,-0.008056640625,0.0042724609375,0.988525390625
1720596311.601,310,309,311,311,310,311,310,311,311,312,310,310,312,311,311,311,310,300,311,312,311,311,311,311,311,311,312,313,312,311,308,310,310,310,310,40.0,-13.0,41.0,-0.1220703050494194,0.0610351525247097,-0.4272460639476776,-0.0086669921875,0.0040283203125,0.9881591796875
1720596311.611,310,310,310,310,310,310,310,310,311,311,311,311,311,310,310,311,311,310,311,310,311,311,311,311,310,311,312,312,312,312,311,310,310,307,309,40.0,-13.0,41.0,-0.0610351525247097,0.0,-0.4272460639476776,-0.0086669921875,0.004150390625,0.98828125
1720596311.621,310,310,311,310,299,311,311,311,311,311,311,311,310,311,311,311,312,311,311,312,311,311,311,310,311,311,311,311,313,312,309,310,308,308,309,40.0,-13.0,41.0,-0.0610351525247097,0.0,-0.4272460639476776,-0.0081787109375,0.004150390625,0.988037109375
1720596311.641,310,310,310,310,310,311,311,311,312,311,312,312,311,312,311,310,311,313,311,311,310,311,311,311,310,313,311,312,311,311,310,310,310,308,308,40.0,-13.0,41.0,-0.1220703050494194,0.0,-0.4272460639476776,-0.0078125,0.0035400390625,0.988037109375
1720596311.651,310,310,310,310,310,311,311,311,311,311,310,311,311,311,311,312,311,310,311,311,311,311,311,311,311,311,311,311,310,313,310,310,310,311,311,41.0,-15.0,43.0,-0.1220703050494194,0.0,-0.4272460639476776,-0.0078125,0.0040283203125,0.9876708984375
1720596311.661,310,310,311,311,311,311,311,311,311,310,311,310,310,311,311,311,311,311,311,312,310,311,311,310,310,313,313,312,311,313,309,304,308,310,310,41.0,-15.0,43.0,-0.1220703050494194,0.0,-0.4272460639476776,-0.007568359375,0.0045166015625,0.9871826171875
1720596311.671,310,310,310,310,309,311,311,310,310,311,311,311,311,311,311,310,311,311,311,312,312,311,311,311,311,312,311,312,312,311,310,310,310,310,310,41.0,-15.0,43.0,-0.1220703050494194,0.0,-0.4272460639476776,-0.0078125,0.0045166015625,0.9869384765625
1720596311.681,310,310,310,310,310,311,311,311,311,311,310,310,311,310,311,311,310,311,311,311,311,311,311,311,311,313,313,312,311,313,308,310,309,311,310,41.0,-15.0,43.0,-0.1220703050494194,0.0,-0.4272460639476776,-0.0081787109375,0.0040283203125,0.987060546875
1720596311.691,310,311,311,310,311,311,310,311,311,311,310,311,311,311,312,311,310,311,311,311,311,312,311,311,311,313,311,312,312,313,308,310,310,311,310,41.0,-15.0,43.0,-0.1220703050494194,0.0,-0.4272460639476776,-0.008056640625,0.0042724609375,0.9876708984375
1720596311.721,310,310,310,310,310,311,311,311,310,311,311,311,310,311,310,311,311,312,311,312,310,312,311,312,311,311,311,313,312,312,310,310,309,310,310,41.0,-15.0,43.0,-0.1220703050494194,0.0,-0.3662109076976776,-0.007568359375,0.0032958984375,0.98828125
1720596311.731,310,310,310,310,310,310,310,311,311,311,311,311,311,311,311,311,313,311,311,311,311,311,311,313,310,313,313,311,311,312,308,310,286,309,310,41.0,-15.0,43.0,-0.0610351525247097,0.0,-0.4272460639476776,-0.0069580078125,0.0042724609375,0.9879150390625
1720596311.741,310,310,310,311,310,311,310,310,311,310,311,311,311,311,310,311,311,310,311,311,310,311,311,311,311,311,312,311,311,311,310,310,310,308,310,41.0,-15.0,43.0,-0.0610351525247097,-0.0610351525247097,-0.4272460639476776,-0.00732421875,0.0050048828125,0.9873046875
1720596311.751,310,310,310,310,310,312,311,311,312,311,312,311,310,311,311,311,311,310,311,311,311,310,312,310,311,311,312,311,312,312,310,310,310,310,310,42.0,-13.0,44.0,-0.0610351525247097,-0.0610351525247097,-0.4272460639476776,-0.0078125,0.0042724609375,0.9866943359375
1720596311.761,310,311,310,310,310,311,311,311,311,311,311,306,310,311,311,311,312,311,310,310,311,310,311,311,310,312,311,311,312,312,309,310,310,310,310,42.0,-13.0,44.0,-0.0610351525247097,0.0,-0.3662109076976776,-0.007568359375,0.0032958984375,0.98681640625
1720596311.771,310,310,310,311,310,311,311,311,311,311,311,311,311,312,311,312,311,311,311,313,312,312,311,311,311,312,312,311,312,313,310,310,310,310,311,42.0,-13.0,44.0,-0.0610351525247097,0.0,-0.4272460639476776,-0.007568359375,0.0030517578125,0.9876708984375
1720596311.781,310,310,310,310,311,311,310,311,311,311,311,311,311,310,311,311,311,311,311,312,310,313,311,312,311,311,311,312,312,313,310,308,309,310,310,42.0,-13.0,44.0,-0.1220703050494194,0.0,-0.4272460639476776,-0.0078125,0.0037841796875,0.9881591796875
1720596311.791,310,310,311,310,310,310,311,311,311,311,310,311,310,311,310,311,311,311,310,312,310,311,312,311,311,311,312,313,312,310,310,310,310,304,308,42.0,-13.0,44.0,-0.1220703050494194,-0.0610351525247097,-0.4882812201976776,-0.0081787109375,0.0045166015625,0.9884033203125
1720596311.801,310,310,310,310,310,312,311,311,313,313,310,311,311,311,311,311,311,312,311,311,311,311,313,311,311,311,312,313,311,311,310,310,310,310,310,42.0,-13.0,44.0,-0.1220703050494194,0.0,-0.4882812201976776,-0.0084228515625,0.00439453125,0.988037109375
1720596311.811,311,311,311,310,311,311,311,311,311,311,310,311,311,311,311,311,311,311,312,311,310,311,311,311,311,312,311,311,312,312,308,308,309,310,310,42.0,-13.0,44.0,-0.1220703050494194,0.0,-0.4882812201976776,-0.0081787109375,0.003662109375,0.9879150390625
1720596311.821,310,310,310,310,310,310,311,312,311,311,311,311,311,311,310,312,313,311,310,310,311,311,311,311,311,311,311,312,311,311,310,309,310,310,310,42.0,-13.0,44.0,-0.0610351525247097,0.0,-0.4882812201976776,-0.008056640625,0.0035400390625,0.988037109375
1720596311.831,310,311,310,311,311,310,310,311,311,311,311,311,311,311,310,311,310,311,311,311,311,311,311,312,313,312,311,312,311,311,310,310,310,326,310,42.0,-13.0,44.0,-0.1220703050494194,0.0,-0.4882812201976776,-0.0076904296875,0.0037841796875,0.9874267578125
1720596311.851,310,311,310,310,310,311,310,311,311,310,312,312,311,311,311,312,311,310,311,310,311,311,311,311,311,311,312,311,311,312,310,310,309,309,309,41.0,-11.0,44.0,-0.1220703050494194,0.0,-0.4882812201976776,-0.0079345703125,0.004638671875,0.987060546875
1720596311.861,310,310,310,310,310,311,310,311,311,311,310,311,311,311,310,311,311,311,311,310,311,311,311,311,311,312,312,312,311,312,312,310,310,310,310,41.0,-11.0,44.0,-0.1220703050494194,0.0,-0.4882812201976776,-0.0079345703125,0.0040283203125,0.9881591796875
1720596311.871,310,310,311,310,310,311,312,310,311,311,311,311,310,311,311,310,311,311,312,310,311,311,311,311,311,311,312,311,313,312,312,308,310,310,311,41.0,-11.0,44.0,-0.1220703050494194,0.0,-0.4882812201976776,-0.0081787109375,0.0037841796875,0.9881591796875
1720596311.881,310,310,310,310,311,310,311,311,311,311,310,313,310,311,310,311,311,313,310,311,311,311,311,310,310,313,312,312,311,311,310,310,310,309,310,41.0,-11.0,44.0,-0.1220703050494194,0.0,-0.4882812201976776,-0.0079345703125,0.004150390625,0.9876708984375
1720596311.891,310,310,310,311,311,310,310,310,302,311,311,311,311,311,311,310,311,311,311,311,311,310,311,311,311,312,311,311,312,311,304,310,309,310,310,41.0,-11.0,44.0,-0.0610351525247097,0.0,-0.4882812201976776,-0.00732421875,0.0042724609375,0.98779296875
1720596311.911,311,309,310,310,311,310,311,311,311,311,310,311,311,311,311,311,310,311,311,310,312,311,311,310,311,308,312,311,311,311,310,308,310,310,310,41.0,-11.0,44.0,-0.1220703050494194,-0.0610351525247097,-0.3662109076976776,-0.008056640625,0.0047607421875,0.98779296875
1720596311.921,310,310,310,311,310,311,311,311,311,311,311,310,310,310,310,311,311,312,311,311,311,311,310,311,311,311,312,311,311,313,311,310,308,312,310,41.0,-11.0,44.0,-0.1220703050494194,0.0,-0.4272460639476776,-0.008544921875,0.0057373046875,0.987548828125
1720596311.931,310,310,310,310,310,311,310,310,311,311,310,310,310,311,311,312,311,311,311,311,311,311,310,312,311,313,311,311,312,312,310,310,309,310,310,41.0,-11.0,44.0,-0.1220703050494194,0.0,-0.4272460639476776,-0.00830078125,0.005615234375,0.9874267578125
1720596311.941,310,300,310,310,311,311,311,310,311,311,311,310,311,311,311,311,311,313,311,311,311,310,311,311,312,310,311,311,312,312,310,310,310,310,310,41.0,-11.0,44.0,-0.1831054538488388,-0.0610351525247097,-0.4272460639476776,-0.0079345703125,0.004638671875,0.9874267578125
1720596311.951,310,310,310,310,310,311,311,310,311,311,311,311,310,311,311,311,311,311,310,311,311,311,311,311,312,312,312,311,311,311,309,309,310,309,309,41.0,-15.0,38.0,-0.1831054538488388,-0.0610351525247097,-0.4272460639476776,-0.0076904296875,0.0042724609375,0.9881591796875
1720596311.961,310,311,310,311,310,311,311,312,311,311,311,311,310,311,311,311,310,310,311,311,311,310,310,310,311,312,313,311,311,312,310,309,310,309,310,41.0,-15.0,38.0,-0.1220703050494194,-0.0610351525247097,-0.4272460639476776,-0.007568359375,0.004638671875,0.9892578125
1720596311.971,311,310,310,310,311,310,310,312,311,312,311,311,310,311,311,311,310,311,311,312,311,311,311,312,311,311,312,312,311,311,308,310,310,310,310,41.0,-15.0,38.0,-0.1220703050494194,-0.0610351525247097,-0.4272460639476776,-0.0074462890625,0.004638671875,0.988525390625
1720596311.981,311,311,310,310,311,311,310,311,311,311,311,311,308,311,310,310,311,310,311,311,311,311,311,311,312,312,311,312,311,311,310,310,310,311,310,41.0,-15.0,38.0,-0.1220703050494194,-0.0610351525247097,-0.4882812201976776,-0.0078125,0.00439453125,0.98779296875
1720596311.991,310,310,311,310,311,312,311,310,311,311,311,311,311,311,311,310,311,311,310,310,311,311,311,311,311,312,311,311,312,312,310,308,309,310,310,41.0,-15.0,38.0,-0.1220703050494194,0.0,-0.4272460639476776,-0.0078125,0.0042724609375,0.988037109375
1720596312.001,311,311,310,310,311,310,311,311,311,311,311,311,311,311,309,312,311,311,311,310,311,311,311,311,310,313,311,311,311,311,310,310,310,310,309,41.0,-15.0,38.0,-0.1220703050494194,-0.0610351525247097,-0.4272460639476776,-0.0068359375,0.0042724609375,0.9881591796875
1720596312.011,310,309,311,310,310,310,311,310,312,311,311,311,312,311,311,311,313,311,311,311,311,312,311,311,311,312,313,311,312,311,310,310,294,310,310,41.0,-15.0,38.0,-0.1220703050494194,-0.0610351525247097,-0.4272460639476776,-0.006591796875,0.0045166015625,0.98876953125
1720596312.021,311,310,310,310,310,310,311,310,311,311,311,308,311,311,310,311,311,311,311,311,310,311,310,312,312,313,311,313,312,312,310,284,308,310,310,41.0,-15.0,38.0,-0.1220703050494194,0.0,-0.4272460639476776,-0.0068359375,0.004638671875,0.98876953125
1720596312.031,311,310,310,310,310,311,311,311,312,311,311,312,311,311,311,311,310,311,311,311,310,311,310,311,311,312,311,311,312,312,310,310,310,310,308,41.0,-15.0,38.0,-0.1220703050494194,0.0610351525247097,-0.4272460639476776,-0.0074462890625,0.00439453125,0.987548828125
1720596312.041,310,309,310,310,310,311,311,311,311,310,311,310,312,310,311,311,310,313,311,311,311,311,311,311,311,311,312,311,311,311,309,310,308,310,308,41.0,-15.0,38.0,-0.1220703050494194,0.0610351525247097,-0.4272460639476776,-0.0079345703125,0.0032958984375,0.98681640625
1720596312.051,310,311,310,310,310,311,286,304,310,311,311,311,311,311,311,311,311,311,310,311,311,311,312,311,311,311,312,313,313,313,309,310,310,309,310,42.0,-13.0,45.0,-0.1220703050494194,0.0610351525247097,-0.4882812201976776,-0.0076904296875,0.002685546875,0.9874267578125
1720596312.081,310,310,311,311,310,311,310,311,311,311,311,311,311,311,311,311,311,312,311,312,311,311,310,311,310,311,311,312,312,312,311,309,309,311,310,42.0,-13.0,45.0,-0.1220703050494194,0.0,-0.4272460639476776,-0.0068359375,0.00390625,0.987548828125
1720596312.091,310,310,310,310,310,311,310,313,311,311,312,312,310,311,310,312,311,312,311,311,311,311,311,311,311,311,311,312,311,311,310,310,310,299,285,42.0,-13.0,45.0,-0.1220703050494194,0.0610351525247097,-0.4272460639476776,-0.00732421875,0.00390625,0.987548828125
1720596312.101,310,310,310,311,311,311,310,310,311,311,310,311,311,310,311,311,310,310,313,311,311,313,311,312,312,312,313,312,312,312,310,309,310,310,308,42.0,-13.0,45.0,-0.1220703050494194,0.0610351525247097,-0.4272460639476776,-0.0076904296875,0.0040283203125,0.98779296875
1720596312.111,309,311,310,310,310,310,311,311,311,311,310,310,312,311,312,310,312,310,312,311,311,312,312,311,311,311,312,313,312,313,309,309,310,311,310,42.0,-13.0,45.0,-0.1220703050494194,0.0,-0.3662109076976776,-0.0076904296875,0.0037841796875,0.9876708984375
1720596312.121,310,310,310,310,310,311,311,311,311,311,311,311,310,310,311,311,310,311,311,311,301,310,311,311,310,311,311,312,311,311,309,310,310,310,310,42.0,-13.0,45.0,-0.0610351525247097,0.0,-0.3662109076976776,-0.007080078125,0.004150390625,0.988037109375
1720596312.131,310,310,311,311,310,311,310,311,311,311,311,311,311,311,311,311,312,311,310,311,311,311,311,312,311,312,313,313,311,313,310,310,310,310,309,42.0,-13.0,45.0,-0.0610351525247097,0.0,-0.4272460639476776,-0.007080078125,0.00439453125,0.9886474609375
1720596312.141,310,310,311,311,311,311,310,311,311,311,311,310,310,311,311,312,311,311,311,311,310,314,311,311,311,313,311,312,313,312,310,310,310,310,310,42.0,-13.0,45.0,-0.1220703050494194,0.0,-0.4272460639476776,-0.0078125,0.00390625,0.9886474609375
1720596312.151,310,310,311,310,310,311,311,311,311,313,311,311,311,310,311,311,311,311,313,312,311,311,311,311,309,312,311,313,312,313,310,309,310,302,310,41.0,-16.0,44.0,-0.1220703050494194,0.0,-0.4272460639476776,-0.0081787109375,0.0032958984375,0.98828125
1720596312.171,310,309,311,311,311,311,310,311,311,311,312,310,311,310,311,310,310,311,311,311,311,314,312,310,311,313,311,311,311,311,310,310,310,310,310,41.0,-16.0,44.0,-0.0610351525247097,-0.0610351525247097,-0.3662109076976776,-0.0068359375,0.0035400390625,0.9879150390625
1720596312.181,310,310,310,310,311,311,311,300,312,311,310,310,311,311,311,310,311,311,311,310,311,311,312,311,310,311,313,312,312,311,310,310,309,309,310,41.0,-16.0,44.0,-0.1220703050494194,-0.0610351525247097,-0.3662109076976776,-0.006591796875,0.00341796875,0.9888916015625
1720596312.191,310,310,310,311,311,311,310,311,311,311,311,311,311,311,311,311,312,311,311,310,311,311,311,311,311,311,312,313,312,311,310,310,309,309,310,41.0,-16.0,44.0,-0.1220703050494194,0.0,-0.3662109076976776,-0.0074462890625,0.0037841796875,0.9888916015625
1720596312.201,310,310,310,310,311,311,311,311,304,311,311,311,310,311,310,310,313,312,311,309,311,311,311,311,311,311,311,313,313,311,308,310,310,310,310,41.0,-16.0,44.0,-0.1220703050494194,0.0,-0.4272460639476776,-0.00830078125,0.00439453125,0.9884033203125
1720596312.211,310,311,310,310,310,312,311,312,311,311,311,311,311,311,310,311,311,311,311,310,311,311,310,311,311,312,311,312,311,311,310,309,310,310,308,41.0,-16.0,44.0,-0.1220703050494194,0.0,-0.4882812201976776,-0.00830078125,0.00439453125,0.9879150390625
1720596312.221,310,308,310,310,310,310,312,312,311,311,311,311,311,311,311,311,311,311,311,311,311,311,311,312,311,312,311,312,310,311,308,310,310,310,310,41.0,-16.0,44.0,-0.1220703050494194,0.0,-0.4882812201976776,-0.007568359375,0.00439453125,0.987060546875
1720596312.231,311,310,310,310,310,311,311,311,312,310,311,310,311,311,311,311,310,312,311,311,311,312,310,311,311,311,311,311,311,311,308,310,308,310,310,41.0,-16.0,44.0,-0.1220703050494194,-0.0610351525247097,-0.4272460639476776,-0.007080078125,0.004150390625,0.9864501953125
1720596312.241,310,308,309,311,310,311,311,311,311,311,312,310,310,311,311,311,310,311,312,311,311,311,310,312,311,311,311,312,313,311,308,311,310,310,310,41.0,-16.0,44.0,-0.0610351525247097,0.0,-0.4272460639476776,-0.0069580078125,0.003662109375,0.9869384765625
1720596312.251,310,310,309,310,311,311,311,311,311,312,311,311,311,311,311,311,311,312,310,310,311,311,311,312,310,311,311,312,313,312,310,310,310,310,308,40.0,-14.0,41.0,-0.0610351525247097,0.0,-0.4272460639476776,-0.0069580078125,0.00341796875,0.988037109375
1720596312.261,311,310,310,311,310,310,311,311,311,312,311,310,310,311,311,311,311,310,311,311,311,311,311,311,311,312,310,311,311,313,310,310,310,310,311,40.0,-14.0,41.0,-0.1220703050494194,0.0,-0.4882812201976776,-0.00732421875,0.0030517578125,0.9879150390625
1720596312.271,310,311,310,310,310,310,311,311,311,311,311,311,311,312,312,311,311,311,311,310,311,302,312,311,311,311,311,311,311,312,309,308,313,310,310,40.0,-14.0,41.0,-0.1220703050494194,0.0,-0.4272460639476776,-0.00830078125,0.003173828125,0.9874267578125
1720596312.291,310,310,310,310,310,311,310,311,312,311,311,311,311,311,310,312,310,311,311,311,310,311,310,311,311,313,311,312,311,312,310,308,308,310,310,40.0,-14.0,41.0,-0.1220703050494194,0.0,-0.4272460639476776,-0.0076904296875,0.0048828125,0.987060546875
1720596312.301,310,311,311,310,310,310,311,311,311,311,311,311,311,312,310,311,311,311,311,311,311,311,311,311,310,311,313,311,312,311,310,309,309,309,302,40.0,-14.0,41.0,-0.1220703050494194,0.0,-0.4882812201976776,-0.00732421875,0.004150390625,0.9876708984375
1720596312.311,310,310,310,310,310,311,310,310,311,310,311,310,310,311,311,311,310,311,311,311,311,311,311,311,312,311,312,311,311,312,310,310,310,309,310,40.0,-14.0,41.0,-0.1220703050494194,-0.0610351525247097,-0.4882812201976776,-0.0078125,0.0030517578125,0.9879150390625
1720596312.321,309,310,310,310,311,311,310,311,311,310,310,311,311,311,311,311,311,310,312,312,310,311,311,311,311,311,311,311,311,312,310,310,310,310,310,40.0,-14.0,41.0,-0.1220703050494194,-0.0610351525247097,-0.4272460639476776,-0.0084228515625,0.0029296875,0.9874267578125
1720596312.331,310,311,310,310,310,311,311,310,311,311,311,311,311,311,311,311,311,311,312,311,311,311,310,312,312,311,311,311,311,313,309,310,313,310,310,40.0,-14.0,41.0,-0.1220703050494194,0.0,-0.4272460639476776,-0.0086669921875,0.0037841796875,0.98779296875
1720596312.341,310,310,311,310,311,311,312,311,311,310,310,310,311,311,311,311,310,310,311,311,311,311,311,310,311,312,311,311,311,311,310,310,310,310,310,40.0,-14.0,41.0,-0.0610351525247097,0.0,-0.4882812201976776,-0.0084228515625,0.004150390625,0.988037109375
